File: boron_diamond/ekimov_2004/tc2.4/xrd/curve_1_fit.dat
37.5,21.5856
37.51,21.985
37.52,22.3953
37.53,22.8171
37.54,23.2506
37.55,23.6963
37.56,24.1547
37.57,24.6263
37.58,25.1115
37.59,25.6109
37.6,26.125
37.61,26.6544
37.62,27.1997
37.63,27.7615
37.64,28.3404
37.65,28.9372
37.66,29.5526
37.67,30.1873
37.68,30.8421
37.69,31.5179
37.7,32.2155
37.71,32.9359
37.72,33.68
37.73,34.4488
37.74,35.2435
37.75,36.0651
37.76,36.9149
37.77,37.7941
37.78,38.7039
37.79,39.6459
37.8,40.6215
37.81,41.6322
37.82,42.6796
37.83,43.7655
37.84,44.8918
37.85,46.0602
37.86,47.273
37.87,48.5322
37.88,49.84
37.89,51.1991
37.9,52.6117
37.91,54.0808
37.92,55.6091
37.93,57.1997
37.94,58.8558
37.95,60.5807
37.96,62.3782
37.97,64.252
37.98,66.2063
37.99,68.2452
38,70.3734
38.01,72.5958
38.02,74.9174
38.03,77.3438
38.04,79.8807
38.05,82.5342
38.06,85.3108
38.07,88.2175
38.08,91.2614
38.09,94.4504
38.1,97.7924
38.11,101.296
38.12,104.971
38.13,108.825
38.14,112.87
38.15,117.116
38.16,121.573
38.17,126.253
38.18,131.167
38.19,136.329
38.2,141.75
38.21,147.443
38.22,153.42
38.23,159.696
38.24,166.281
38.25,173.189
38.26,180.43
38.27,188.015
38.28,195.954
38.29,204.252
38.3,212.915
38.31,221.945
38.32,231.338
38.33,241.088
38.34,251.182
38.35,261.6
38.36,272.316
38.37,283.293
38.38,294.486
38.39,305.836
38.4,317.277
38.41,328.725
38.42,340.088
38.43,351.258
38.44,362.117
38.45,372.537
38.46,382.383
38.47,391.512
38.48,399.785
38.49,407.062
38.5,413.217
38.51,418.134
38.52,421.718
38.53,423.898
38.54,424.63
38.55,423.898
38.56,421.718
38.57,418.134
38.58,413.217
38.59,407.062
38.6,399.785
38.61,391.512
38.62,382.383
38.63,372.537
38.64,362.117
38.65,351.258
38.66,340.088
38.67,328.725
38.68,317.277
38.69,305.836
38.7,294.486
38.71,283.293
38.72,272.316
38.73,261.6
38.74,251.182
38.75,241.088
38.76,231.338
38.77,221.945
38.78,212.915
38.79,204.252
38.8,195.954
38.81,188.015
38.82,180.43
38.83,173.189
38.84,166.281
38.85,159.696
38.86,153.42
38.87,147.443
38.88,141.75
38.89,136.329
38.9,131.167
38.91,126.253
38.92,121.573
38.93,117.116
38.94,112.87
38.95,108.825
38.96,104.971
38.97,101.296
38.98,97.7924
38.99,94.4504
39,91.2614
39.01,88.2175
39.02,85.3108
39.03,82.5342
39.04,79.8807
39.05,77.3438
39.06,74.9174
39.07,72.5958
39.08,70.3734
39.09,68.2452
39.1,66.2063
39.11,64.252
39.12,62.3782
39.13,60.5807
39.14,58.8558
39.15,57.1997
39.16,55.6091
39.17,54.0808
39.18,52.6117
39.19,51.1991
39.2,49.84
39.21,48.5322
39.22,47.273
39.23,46.0602
39.24,44.8918
39.25,43.7655
39.26,42.6796
39.27,41.6322
39.28,40.6215
39.29,39.6459
39.3,38.7039
39.31,37.7941
39.32,36.9149
39.33,36.0651
39.34,35.2435
39.35,34.4488
39.36,33.68
39.37,32.9359
39.38,32.2155
39.39,31.5179
39.4,30.8421
39.41,30.1873
39.42,29.5526
39.43,28.9372
39.44,28.3404
39.45,27.7615
39.46,27.1997
39.47,26.6544
39.48,26.125
39.49,25.6109
39.5,25.1115
39.51,24.6263
39.52,24.1547
39.53,23.6963
39.54,23.2506
39.55,22.8171
39.56,22.3953
39.57,21.985
39.58,21.5856
39.59,21.1968
39.6,20.8183
39.61,20.4497
39.62,20.0905
39.63,19.7407
39.64,19.3997
39.65,19.0673
39.66,18.7433
39.67,18.4274
39.68,18.1193
39.69,17.8187
39.7,17.5254
39.71,17.2392
39.72,16.9599
39.73,16.6872
39.74,16.421
39.75,16.1609
39.76,15.907
39.77,15.6589
39.78,15.4165
39.79,15.1796
39.8,14.948
39.81,14.7217
39.82,14.5004
39.83,14.284
39.84,14.0723
39.85,13.8653
39.86,13.6627
39.87,13.4645
39.88,13.2706
39.89,13.0807
39.9,12.8949
39.91,12.713
39.92,12.5348
39.93,12.3603
39.94,12.1894
39.95,12.022
39.96,11.858
39.97,11.6973
39.98,11.5398
39.99,11.3854
40,11.2341
40.01,11.0858
40.02,10.9403
40.03,10.7977
40.04,10.6578
40.05,10.5206
40.06,10.386
40.07,10.2539
40.08,10.1244
40.09,9.9972
40.1,9.87242
40.11,9.74993
40.12,9.6297
40.13,9.51165
40.14,9.39575
40.15,9.28194
40.16,9.17017
40.17,9.06039
40.18,8.95256
40.19,8.84662
40.2,8.74255
40.21,8.64028
40.22,8.53979
40.23,8.44103
40.24,8.34396
40.25,8.24855
40.26,8.15475
40.27,8.06253
40.28,7.97186
40.29,7.8827
40.3,7.79502
40.31,7.70878
40.32,7.62396
40.33,7.54052
40.34,7.45844
40.35,7.37768
40.36,7.29822
40.37,7.22003
40.38,7.14308
40.39,7.06735
40.4,6.99281
40.41,6.91943
40.42,6.8472
40.43,6.77609
40.44,6.70607
40.45,6.63713
40.46,6.56924
40.47,6.50238
40.48,6.43653
40.49,6.37168
40.5,6.30779
40.51,6.24485
40.52,6.18285
40.53,6.12176
40.54,6.06157
40.55,6.00225
40.56,5.9438
40.57,5.88619
40.58,5.82942
40.59,5.77346
40.6,5.71829
40.61,5.66391
40.62,5.6103
40.63,5.55744
40.64,5.50532
40.65,5.45393
40.66,5.40326
40.67,5.35328
40.68,5.30399
40.69,5.25537
40.7,5.20742
40.71,5.16012
40.72,5.11345
40.73,5.06742
40.74,5.022
40.75,4.97719
40.76,4.93297
40.77,4.88933
40.78,4.84627
40.79,4.80378
40.8,4.76184
40.81,4.72044
40.82,4.67958
40.83,4.63924
40.84,4.59943
40.85,4.56012
40.86,4.52131
40.87,4.48299
40.88,4.44516
40.89,4.4078
40.9,4.37091
40.91,4.33447
40.92,4.29849
40.93,4.26296
40.94,4.22786
40.95,4.19319
40.96,4.15895
40.97,4.12512
40.98,4.0917
40.99,4.05869
41,4.02607
41.01,3.99384
41.02,3.962
41.03,3.93053
41.04,3.89944
41.05,3.86871
41.06,3.83835
41.07,3.80834
41.08,3.77868
41.09,3.74936
41.1,3.72038
41.11,3.69173
41.12,3.66342
41.13,3.63543
41.14,3.60775
41.15,3.58039
41.16,3.55334
41.17,3.52659
41.18,3.50015
41.19,3.474
41.2,3.44814
41.21,3.42257
41.22,3.39728
41.23,3.37226
41.24,3.34753
41.25,3.32306
41.26,3.29886
41.27,3.27492
41.28,3.25125
41.29,3.22782