File: boron_diamond/ekimov_2004/tc2.4/xrd/curve_2_fit.dat
37.5,6.79358e-60
37.51,1.79594e-59
37.52,4.73157e-59
37.53,1.24234e-58
37.54,3.25085e-58
37.55,8.47764e-58
37.56,2.2033e-57
37.57,5.70682e-57
37.58,1.47311e-56
37.59,3.78964e-56
37.6,9.71587e-56
37.61,2.48249e-55
37.62,6.32139e-55
37.63,1.60421e-54
37.64,4.05722e-54
37.65,1.02263e-53
37.66,2.5688e-53
37.67,6.43076e-53
37.68,1.60441e-52
37.69,3.98924e-52
37.7,9.88522e-52
37.71,2.4412e-51
37.72,6.00817e-51
37.73,1.47367e-50
37.74,3.60232e-50
37.75,8.77575e-50
37.76,2.13063e-49
37.77,5.15528e-49
37.78,1.24313e-48
37.79,2.98748e-48
37.8,7.15505e-48
37.81,1.70782e-47
37.82,4.06249e-47
37.83,9.63084e-47
37.84,2.2754e-46
37.85,5.35761e-46
37.86,1.25721e-45
37.87,2.94011e-45
37.88,6.85238e-45
37.89,1.59162e-44
37.9,3.68435e-44
37.91,8.49967e-44
37.92,1.95418e-43
37.93,4.47764e-43
37.94,1.02248e-42
37.95,2.32691e-42
37.96,5.27749e-42
37.97,1.19288e-41
37.98,2.68712e-41
37.99,6.03251e-41
38,1.34968e-40
38.01,3.00943e-40
38.02,6.68742e-40
38.03,1.481e-39
38.04,3.26868e-39
38.05,7.1897e-39
38.06,1.57605e-38
38.07,3.44311e-38
38.08,7.49641e-38
38.09,1.62658e-37
38.1,3.5174e-37
38.11,7.58031e-37
38.12,1.62807e-36
38.13,3.48484e-36
38.14,7.43381e-36
38.15,1.58038e-35
38.16,3.34838e-35
38.17,7.07013e-35
38.18,1.48779e-34
38.19,3.12016e-34
38.2,6.5213e-34
38.21,1.35835e-33
38.22,2.81975e-33
38.23,5.83353e-33
38.24,1.20274e-32
38.25,2.47136e-32
38.26,5.06081e-32
38.27,1.03282e-31
38.28,2.10064e-31
38.29,4.25794e-31
38.3,8.60138e-31
38.31,1.73164e-30
38.32,3.47432e-30
38.33,6.94708e-30
38.34,1.38438e-29
38.35,2.74936e-29
38.36,5.44161e-29
38.37,1.07336e-28
38.38,2.11e-28
38.39,4.13374e-28
38.4,8.07094e-28
38.41,1.57046e-27
38.42,3.04544e-27
38.43,5.88565e-27
38.44,1.1336e-26
38.45,2.17594e-26
38.46,4.16252e-26
38.47,7.93571e-26
38.48,1.50777e-25
38.49,2.85501e-25
38.5,5.38768e-25
38.51,1.01325e-24
38.52,1.89912e-24
38.53,3.54739e-24
38.54,6.60369e-24
38.55,1.22514e-23
38.56,2.2652e-23
38.57,4.17396e-23
38.58,7.66498e-23
38.59,1.4028e-22
38.6,2.55859e-22
38.61,4.6508e-22
38.62,8.4251e-22
38.63,1.52105e-21
38.64,2.73675e-21
38.65,4.90734e-21
38.66,8.76957e-21
38.67,1.56183e-20
38.68,2.77209e-20
38.69,4.90347e-20
38.7,8.64413e-20
38.71,1.51866e-19
38.72,2.65901e-19
38.73,4.63982e-19
38.74,8.0687e-19
38.75,1.39839e-18
38.76,2.41531e-18
38.77,4.15756e-18
38.78,7.13223e-18
38.79,1.21937e-17
38.8,2.07761e-17
38.81,3.52789e-17
38.82,5.97017e-17
38.83,1.00689e-16
38.84,1.69237e-16
38.85,2.83485e-16
38.86,4.73246e-16
38.87,7.87346e-16
38.88,1.30546e-15
38.89,2.15718e-15
38.9,3.55245e-15
38.91,5.8303e-15
38.92,9.53619e-15
38.93,1.55446e-14
38.94,2.52527e-14
38.95,4.08842e-14
38.96,6.59666e-14
38.97,1.06075e-13
38.98,1.69991e-13
38.99,2.71493e-13
39,4.32129e-13
39.01,6.8547e-13
39.02,1.08364e-12
39.03,1.70727e-12
39.04,2.68066e-12
39.05,4.1947e-12
39.06,6.54158e-12
39.07,1.01668e-11
39.08,1.57474e-11
39.09,2.43083e-11
39.1,3.73956e-11
39.11,5.73334e-11
39.12,8.76024e-11
39.13,1.33397e-10
39.14,2.0244e-10
39.15,3.06175e-10
39.16,4.6149e-10
39.17,6.9323e-10
39.18,1.0378e-09
39.19,1.54835e-09
39.2,2.30223e-09
39.21,3.41152e-09
39.22,5.03813e-09
39.23,7.415e-09
39.24,1.08761e-08
39.25,1.58986e-08
39.26,2.31614e-08
39.27,3.36272e-08
39.28,4.86563e-08
39.29,7.01631e-08
39.3,1.00832e-07
39.31,1.44414e-07
39.32,2.06131e-07
39.33,2.93223e-07
39.34,4.15693e-07
39.35,5.87313e-07
39.36,8.26966e-07
39.37,1.16045e-06
39.38,1.62288e-06
39.39,2.26187e-06
39.4,3.14174e-06
39.41,4.34905e-06
39.42,5.99984e-06
39.43,8.24909e-06
39.44,1.1303e-05
39.45,1.54349e-05
39.46,2.10055e-05
39.47,2.84894e-05
39.48,3.85084e-05
39.49,5.1874e-05
39.5,6.96409e-05
39.51,9.31752e-05
39.52,0.000124239
39.53,0.000165096
39.54,0.000218643
39.55,0.000288574
39.56,0.000379576
39.57,0.000497579
39.58,0.00065005
39.59,0.000846355
39.6,0.00109819
39.61,0.00142013
39.62,0.00183019
39.63,0.00235065
39.64,0.00300884
39.65,0.00383824
39.66,0.00487963
39.67,0.00618247
39.68,0.00780655
39.69,0.00982374
39.7,0.0123202
39.71,0.0153984
39.72,0.0191804
39.73,0.0238101
39.74,0.0294567
39.75,0.0363187
39.76,0.0446269
39.77,0.0546492
39.78,0.066695
39.79,0.0811191
39.8,0.0983274
39.81,0.118781
39.82,0.143002
39.83,0.171576
39.84,0.20516
39.85,0.244483
39.86,0.290354
39.87,0.343659
39.88,0.405367
39.89,0.476531
39.9,0.558283
39.91,0.651837
39.92,0.758481
39.93,0.879573
39.94,1.01653
39.95,1.17082
39.96,1.34394
39.97,1.53742
39.98,1.75277
39.99,1.9915
40,2.25505
40.01,2.54479
40.02,2.86201
40.03,3.20782
40.04,3.58319
40.05,3.98889
40.06,4.42542
40.07,4.89304
40.08,5.39168
40.09,5.92094
40.1,6.48006
40.11,7.06786
40.12,7.68277
40.13,8.3228
40.14,8.98549
40.15,9.66798
40.16,10.3669
40.17,11.0787
40.18,11.799
40.19,12.5234
40.2,13.2472
40.21,13.9651
40.22,14.6719
40.23,15.3621
40.24,16.0301
40.25,16.6702
40.26,17.277
40.27,17.845
40.28,18.369
40.29,18.8442
40.3,19.2659
40.31,19.6301
40.32,19.9332
40.33,20.1722
40.34,20.3446
40.35,20.4488
40.36,20.4837
40.37,20.4488
40.38,20.3446
40.39,20.1722
40.4,19.9332
40.41,19.6301
40.42,19.2659
40.43,18.8442
40.44,18.369
40.45,17.845
40.46,17.277
40.47,16.6702
40.48,16.0301
40.49,15.3621
40.5,14.6719
40.51,13.9651
40.52,13.2472
40.53,12.5234
40.54,11.799
40.55,11.0787
40.56,10.3669
40.57,9.66798
40.58,8.98549
40.59,8.3228
40.6,7.68277
40.61,7.06786
40.62,6.48006
40.63,5.92094
40.64,5.39168
40.65,4.89304
40.66,4.42542
40.67,3.98889
40.68,3.58319
40.69,3.20782
40.7,2.86201
40.71,2.54479
40.72,2.25505
40.73,1.9915
40.74,1.75277
40.75,1.53742
40.76,1.34394
40.77,1.17082
40.78,1.01653
40.79,0.879573
40.8,0.758481
40.81,0.651837
40.82,0.558283
40.83,0.476531
40.84,0.405367
40.85,0.343659
40.86,0.290354
40.87,0.244483
40.88,0.20516
40.89,0.171576
40.9,0.143002
40.91,0.118781
40.92,0.0983274
40.93,0.0811191
40.94,0.066695
40.95,0.0546492
40.96,0.0446269
40.97,0.0363187
40.98,0.0294567
40.99,0.0238101
41,0.0191804
41.01,0.0153984
41.02,0.0123202
41.03,0.00982374
41.04,0.00780655
41.05,0.00618247
41.06,0.00487963
41.07,0.00383824
41.08,0.00300884
41.09,0.00235065
41.1,0.00183019
41.11,0.00142013
41.12,0.00109819
41.13,0.000846355
41.14,0.00065005
41.15,0.000497579
41.16,0.000379576
41.17,0.000288574
41.18,0.000218643
41.19,0.000165096
41.2,0.000124239
41.21,9.31752e-05
41.22,6.96409e-05
41.23,5.1874e-05
41.24,3.85084e-05
41.25,2.84894e-05
41.26,2.10055e-05
41.27,1.54349e-05
41.28,1.1303e-05
41.29,8.24909e-06