File: boron_diamond/ekimov_2004/tc2.4/xrd/curve_total_fit.dat
37.5,143.136
37.51,143.535
37.52,143.945
37.53,144.367
37.54,144.801
37.55,145.246
37.56,145.705
37.57,146.176
37.58,146.662
37.59,147.161
37.6,147.675
37.61,148.204
37.62,148.75
37.63,149.311
37.64,149.89
37.65,150.487
37.66,151.103
37.67,151.737
37.68,152.392
37.69,153.068
37.7,153.765
37.71,154.486
37.72,155.23
37.73,155.999
37.74,156.794
37.75,157.615
37.76,158.465
37.77,159.344
37.78,160.254
37.79,161.196
37.8,162.171
37.81,163.182
37.82,164.23
37.83,165.316
37.84,166.442
37.85,167.61
37.86,168.823
37.87,170.082
37.88,171.39
37.89,172.749
37.9,174.162
37.91,175.631
37.92,177.159
37.93,178.75
37.94,180.406
37.95,182.131
37.96,183.928
37.97,185.802
37.98,187.756
37.99,189.795
38,191.923
38.01,194.146
38.02,196.467
38.03,198.894
38.04,201.431
38.05,204.084
38.06,206.861
38.07,209.768
38.08,212.811
38.09,216
38.1,219.342
38.11,222.846
38.12,226.521
38.13,230.375
38.14,234.42
38.15,238.666
38.16,243.123
38.17,247.803
38.18,252.717
38.19,257.879
38.2,263.3
38.21,268.993
38.22,274.97
38.23,281.246
38.24,287.831
38.25,294.739
38.26,301.98
38.27,309.565
38.28,317.504
38.29,325.802
38.3,334.465
38.31,343.495
38.32,352.888
38.33,362.638
38.34,372.732
38.35,383.15
38.36,393.866
38.37,404.843
38.38,416.036
38.39,427.386
38.4,438.827
38.41,450.275
38.42,461.638
38.43,472.808
38.44,483.667
38.45,494.087
38.46,503.933
38.47,513.062
38.48,521.335
38.49,528.612
38.5,534.767
38.51,539.684
38.52,543.268
38.53,545.448
38.54,546.18
38.55,545.448
38.56,543.268
38.57,539.684
38.58,534.767
38.59,528.612
38.6,521.335
38.61,513.062
38.62,503.933
38.63,494.087
38.64,483.667
38.65,472.808
38.66,461.638
38.67,450.275
38.68,438.827
38.69,427.386
38.7,416.036
38.71,404.843
38.72,393.866
38.73,383.15
38.74,372.732
38.75,362.638
38.76,352.888
38.77,343.495
38.78,334.465
38.79,325.802
38.8,317.504
38.81,309.565
38.82,301.98
38.83,294.739
38.84,287.831
38.85,281.246
38.86,274.97
38.87,268.993
38.88,263.3
38.89,257.879
38.9,252.717
38.91,247.803
38.92,243.123
38.93,238.666
38.94,234.42
38.95,230.375
38.96,226.521
38.97,222.846
38.98,219.342
38.99,216
39,212.811
39.01,209.768
39.02,206.861
39.03,204.084
39.04,201.431
39.05,198.894
39.06,196.467
39.07,194.146
39.08,191.923
39.09,189.795
39.1,187.756
39.11,185.802
39.12,183.928
39.13,182.131
39.14,180.406
39.15,178.75
39.16,177.159
39.17,175.631
39.18,174.162
39.19,172.749
39.2,171.39
39.21,170.082
39.22,168.823
39.23,167.61
39.24,166.442
39.25,165.316
39.26,164.23
39.27,163.182
39.28,162.171
39.29,161.196
39.3,160.254
39.31,159.344
39.32,158.465
39.33,157.615
39.34,156.794
39.35,155.999
39.36,155.23
39.37,154.486
39.38,153.765
39.39,153.068
39.4,152.392
39.41,151.737
39.42,151.103
39.43,150.487
39.44,149.89
39.45,149.311
39.46,148.75
39.47,148.204
39.48,147.675
39.49,147.161
39.5,146.662
39.51,146.176
39.52,145.705
39.53,145.246
39.54,144.801
39.55,144.367
39.56,143.946
39.57,143.535
39.58,143.136
39.59,142.748
39.6,142.369
39.61,142.001
39.62,141.642
39.63,141.293
39.64,140.953
39.65,140.621
39.66,140.298
39.67,139.984
39.68,139.677
39.69,139.379
39.7,139.088
39.71,138.805
39.72,138.529
39.73,138.261
39.74,138
39.75,137.747
39.76,137.502
39.77,137.264
39.78,137.033
39.79,136.811
39.8,136.596
39.81,136.39
39.82,136.193
39.83,136.006
39.84,135.827
39.85,135.66
39.86,135.503
39.87,135.358
39.88,135.226
39.89,135.107
39.9,135.003
39.91,134.915
39.92,134.843
39.93,134.79
39.94,134.756
39.95,134.743
39.96,134.752
39.97,134.785
39.98,134.843
39.99,134.927
40,135.039
40.01,135.181
40.02,135.352
40.03,135.555
40.04,135.791
40.05,136.059
40.06,136.361
40.07,136.697
40.08,137.066
40.09,137.468
40.1,137.902
40.11,138.368
40.12,138.862
40.13,139.384
40.14,139.931
40.15,140.5
40.16,141.087
40.17,141.689
40.18,142.302
40.19,142.92
40.2,143.54
40.21,144.155
40.22,144.762
40.23,145.353
40.24,145.924
40.25,146.469
40.26,146.982
40.27,147.458
40.28,147.891
40.29,148.277
40.3,148.611
40.31,148.889
40.32,149.107
40.33,149.263
40.34,149.353
40.35,149.377
40.36,149.332
40.37,149.219
40.38,149.038
40.39,148.79
40.4,148.476
40.41,148.1
40.42,147.663
40.43,147.17
40.44,146.625
40.45,146.032
40.46,145.396
40.47,144.723
40.48,144.017
40.49,143.284
40.5,142.53
40.51,141.76
40.52,140.98
40.53,140.195
40.54,139.411
40.55,138.631
40.56,137.861
40.57,137.104
40.58,136.365
40.59,135.646
40.6,134.951
40.61,134.282
40.62,133.64
40.63,133.028
40.64,132.447
40.65,131.897
40.66,131.379
40.67,130.892
40.68,130.437
40.69,130.013
40.7,129.619
40.71,129.255
40.72,128.919
40.73,128.609
40.74,128.325
40.75,128.065
40.76,127.827
40.77,127.61
40.78,127.413
40.79,127.233
40.8,127.07
40.81,126.922
40.82,126.788
40.83,126.666
40.84,126.555
40.85,126.454
40.86,126.362
40.87,126.277
40.88,126.2
40.89,126.129
40.9,126.064
40.91,126.003
40.92,125.947
40.93,125.894
40.94,125.845
40.95,125.798
40.96,125.754
40.97,125.711
40.98,125.671
40.99,125.632
41,125.595
41.01,125.559
41.02,125.524
41.03,125.49
41.04,125.457
41.05,125.425
41.06,125.393
41.07,125.362
41.08,125.332
41.09,125.302
41.1,125.272
41.11,125.243
41.12,125.215
41.13,125.186
41.14,125.158
41.15,125.131
41.16,125.104
41.17,125.077
41.18,125.05
41.19,125.024
41.2,124.998
41.21,124.973
41.22,124.947
41.23,124.922
41.24,124.898
41.25,124.873
41.26,124.849
41.27,124.825
41.28,124.801
41.29,124.778