File: pb/bose_2007/60nm/xrd/curve_1_fit.dat
35.0,1.07373
35.002,1.07676
35.004,1.0798
35.006,1.08286
35.008,1.08593
35.01,1.08902
35.012,1.09211
35.014,1.09523
35.016,1.09835
35.018,1.10149
35.02,1.10464
35.022,1.1078
35.024,1.11098
35.026,1.11417
35.028,1.11738
35.03,1.12059
35.032,1.12383
35.034,1.12707
35.036,1.13033
35.038,1.13361
35.04,1.1369
35.042,1.1402
35.044,1.14352
35.046,1.14685
35.048,1.1502
35.05,1.15356
35.052,1.15694
35.054,1.16033
35.056,1.16373
35.058,1.16716
35.06,1.17059
35.062,1.17404
35.064,1.17751
35.066,1.18099
35.068,1.18449
35.07,1.188
35.072,1.19153
35.074,1.19507
35.076,1.19863
35.078,1.20221
35.08,1.2058
35.082,1.20941
35.084,1.21303
35.086,1.21667
35.088,1.22033
35.09,1.224
35.092,1.22769
35.094,1.2314
35.096,1.23512
35.098,1.23886
35.1,1.24262
35.102,1.24639
35.104,1.25018
35.106,1.25399
35.108,1.25782
35.11,1.26166
35.112,1.26552
35.114,1.2694
35.116,1.2733
35.118,1.27721
35.12,1.28114
35.122,1.28509
35.124,1.28906
35.126,1.29305
35.128,1.29706
35.13,1.30108
35.132,1.30512
35.134,1.30918
35.136,1.31326
35.138,1.31736
35.14,1.32148
35.142,1.32562
35.144,1.32978
35.146,1.33396
35.148,1.33815
35.15,1.34237
35.152,1.34661
35.154,1.35086
35.156,1.35514
35.158,1.35944
35.16,1.36375
35.162,1.36809
35.164,1.37245
35.166,1.37683
35.168,1.38123
35.17,1.38565
35.172,1.39009
35.174,1.39456
35.176,1.39904
35.178,1.40355
35.18,1.40808
35.182,1.41263
35.184,1.4172
35.186,1.4218
35.188,1.42641
35.19,1.43105
35.192,1.43572
35.194,1.4404
35.196,1.44511
35.198,1.44984
35.2,1.45459
35.202,1.45937
35.204,1.46417
35.206,1.469
35.208,1.47385
35.21,1.47872
35.212,1.48362
35.214,1.48854
35.216,1.49348
35.218,1.49845
35.22,1.50345
35.222,1.50847
35.224,1.51351
35.226,1.51858
35.228,1.52368
35.23,1.5288
35.232,1.53394
35.234,1.53912
35.236,1.54432
35.238,1.54954
35.24,1.55479
35.242,1.56007
35.244,1.56538
35.246,1.57071
35.248,1.57607
35.25,1.58145
35.252,1.58687
35.254,1.59231
35.256,1.59778
35.258,1.60328
35.26,1.60881
35.262,1.61436
35.264,1.61994
35.266,1.62556
35.268,1.6312
35.27,1.63687
35.272,1.64257
35.274,1.6483
35.276,1.65406
35.278,1.65985
35.28,1.66567
35.282,1.67153
35.284,1.67741
35.286,1.68332
35.288,1.68927
35.29,1.69524
35.292,1.70125
35.294,1.70729
35.296,1.71336
35.298,1.71946
35.3,1.7256
35.302,1.73177
35.304,1.73797
35.306,1.74421
35.308,1.75048
35.31,1.75678
35.312,1.76312
35.314,1.76949
35.316,1.77589
35.318,1.78233
35.32,1.78881
35.322,1.79532
35.324,1.80186
35.326,1.80844
35.328,1.81506
35.33,1.82172
35.332,1.82841
35.334,1.83513
35.336,1.8419
35.338,1.8487
35.34,1.85554
35.342,1.86241
35.344,1.86933
35.346,1.87628
35.348,1.88328
35.35,1.89031
35.352,1.89738
35.354,1.90449
35.356,1.91164
35.358,1.91883
35.36,1.92606
35.362,1.93333
35.364,1.94064
35.366,1.948
35.368,1.95539
35.37,1.96283
35.372,1.97031
35.374,1.97783
35.376,1.9854
35.378,1.99301
35.38,2.00066
35.382,2.00835
35.384,2.0161
35.386,2.02388
35.388,2.03171
35.39,2.03959
35.392,2.04751
35.394,2.05548
35.396,2.06349
35.398,2.07155
35.4,2.07966
35.402,2.08781
35.404,2.09602
35.406,2.10427
35.408,2.11257
35.41,2.12092
35.412,2.12932
35.414,2.13777
35.416,2.14626
35.418,2.15481
35.42,2.16341
35.422,2.17206
35.424,2.18077
35.426,2.18952
35.428,2.19833
35.43,2.20719
35.432,2.2161
35.434,2.22507
35.436,2.23409
35.438,2.24317
35.44,2.2523
35.442,2.26149
35.444,2.27074
35.446,2.28004
35.448,2.28939
35.45,2.29881
35.452,2.30828
35.454,2.31781
35.456,2.3274
35.458,2.33705
35.46,2.34676
35.462,2.35653
35.464,2.36636
35.466,2.37625
35.468,2.38621
35.47,2.39622
35.472,2.4063
35.474,2.41644
35.476,2.42665
35.478,2.43692
35.48,2.44726
35.482,2.45766
35.484,2.46812
35.486,2.47866
35.488,2.48926
35.49,2.49993
35.492,2.51067
35.494,2.52147
35.496,2.53235
35.498,2.54329
35.5,2.55431
35.502,2.5654
35.504,2.57656
35.506,2.58779
35.508,2.5991
35.51,2.61048
35.512,2.62193
35.514,2.63346
35.516,2.64507
35.518,2.65675
35.52,2.66851
35.522,2.68035
35.524,2.69226
35.526,2.70425
35.528,2.71633
35.53,2.72848
35.532,2.74072
35.534,2.75304
35.536,2.76544
35.538,2.77792
35.54,2.79049
35.542,2.80315
35.544,2.81588
35.546,2.82871
35.548,2.84162
35.55,2.85463
35.552,2.86772
35.554,2.8809
35.556,2.89417
35.558,2.90753
35.56,2.92098
35.562,2.93453
35.564,2.94817
35.566,2.9619
35.568,2.97574
35.57,2.98966
35.572,3.00369
35.574,3.01781
35.576,3.03204
35.578,3.04636
35.58,3.06078
35.582,3.07531
35.584,3.08994
35.586,3.10467
35.588,3.11951
35.59,3.13445
35.592,3.1495
35.594,3.16466
35.596,3.17993
35.598,3.19531
35.6,3.21079
35.602,3.22639
35.604,3.24211
35.606,3.25794
35.608,3.27388
35.61,3.28994
35.612,3.30612
35.614,3.32242
35.616,3.33883
35.618,3.35537
35.62,3.37203
35.622,3.38881
35.624,3.40572
35.626,3.42276
35.628,3.43992
35.63,3.45721
35.632,3.47463
35.634,3.49218
35.636,3.50986
35.638,3.52768
35.64,3.54563
35.642,3.56372
35.644,3.58194
35.646,3.60031
35.648,3.61881
35.65,3.63746
35.652,3.65625
35.654,3.67519
35.656,3.69427
35.658,3.7135
35.66,3.73288
35.662,3.75241
35.664,3.77209
35.666,3.79193
35.668,3.81192
35.67,3.83207
35.672,3.85238
35.674,3.87285
35.676,3.89348
35.678,3.91427
35.68,3.93523
35.682,3.95636
35.684,3.97766
35.686,3.99913
35.688,4.02077
35.69,4.04258
35.692,4.06458
35.694,4.08675
35.696,4.1091
35.698,4.13163
35.7,4.15435
35.702,4.17725
35.704,4.20035
35.706,4.22363
35.708,4.2471
35.71,4.27077
35.712,4.29464
35.714,4.3187
35.716,4.34297
35.718,4.36744
35.72,4.39211
35.722,4.41699
35.724,4.44209
35.726,4.46739
35.728,4.49291
35.73,4.51865
35.732,4.5446
35.734,4.57078
35.736,4.59718
35.738,4.62381
35.74,4.65067
35.742,4.67777
35.744,4.70509
35.746,4.73266
35.748,4.76047
35.75,4.78851
35.752,4.81681
35.754,4.84535
35.756,4.87415
35.758,4.9032
35.76,4.93251
35.762,4.96208
35.764,4.99191
35.766,5.02201
35.768,5.05238
35.77,5.08303
35.772,5.11395
35.774,5.14515
35.776,5.17663
35.778,5.2084
35.78,5.24046
35.782,5.27282
35.784,5.30547
35.786,5.33842
35.788,5.37168
35.79,5.40524
35.792,5.43912
35.794,5.47331
35.796,5.50782
35.798,5.54266
35.8,5.57782
35.802,5.61332
35.804,5.64915
35.806,5.68532
35.808,5.72184
35.81,5.7587
35.812,5.79592
35.814,5.83349
35.816,5.87143
35.818,5.90973
35.82,5.94841
35.822,5.98746
35.824,6.02689
35.826,6.06671
35.828,6.10691
35.83,6.14752
35.832,6.18852
35.834,6.22993
35.836,6.27176
35.838,6.31399
35.84,6.35666
35.842,6.39975
35.844,6.44327
35.846,6.48723
35.848,6.53164
35.85,6.5765
35.852,6.62181
35.854,6.66759
35.856,6.71384
35.858,6.76057
35.86,6.80777
35.862,6.85547
35.864,6.90366
35.866,6.95236
35.868,7.00156
35.87,7.05128
35.872,7.10152
35.874,7.1523
35.876,7.20361
35.878,7.25547
35.88,7.30788
35.882,7.36085
35.884,7.41439
35.886,7.46851
35.888,7.52321
35.89,7.5785
35.892,7.6344
35.894,7.69091
35.896,7.74804
35.898,7.80579
35.9,7.86419
35.902,7.92322
35.904,7.98292
35.906,8.04328
35.908,8.10432
35.91,8.16604
35.912,8.22845
35.914,8.29158
35.916,8.35541
35.918,8.41998
35.92,8.48528
35.922,8.55133
35.924,8.61814
35.926,8.68572
35.928,8.75409
35.93,8.82325
35.932,8.89321
35.934,8.964
35.936,9.03562
35.938,9.10808
35.94,9.1814
35.942,9.25559
35.944,9.33067
35.946,9.40664
35.948,9.48353
35.95,9.56134
35.952,9.6401
35.954,9.71981
35.956,9.8005
35.958,9.88217
35.96,9.96484
35.962,10.0485
35.964,10.1333
35.966,10.219
35.968,10.3059
35.97,10.3938
35.972,10.4829
35.974,10.573
35.976,10.6643
35.978,10.7568
35.98,10.8504
35.982,10.9453
35.984,11.0413
35.986,11.1386
35.988,11.2372
35.99,11.337
35.992,11.4382
35.994,11.5407
35.996,11.6445
35.998,11.7497
36,11.8562
36.002,11.9642
36.004,12.0737
36.006,12.1846
36.008,12.297
36.01,12.4109
36.012,12.5264
36.014,12.6434
36.016,12.7621
36.018,12.8824
36.02,13.0043
36.022,13.1279
36.024,13.2533
36.026,13.3804
36.028,13.5092
36.03,13.6399
36.032,13.7725
36.034,13.9069
36.036,14.0432
36.038,14.1815
36.04,14.3217
36.042,14.464
36.044,14.6084
36.046,14.7548
36.048,14.9034
36.05,15.0542
36.052,15.2072
36.054,15.3625
36.056,15.52
36.058,15.6799
36.06,15.8422
36.062,16.007
36.064,16.1742
36.066,16.344
36.068,16.5164
36.07,16.6914
36.072,16.869
36.074,17.0495
36.076,17.2327
36.078,17.4188
36.08,17.6077
36.082,17.7997
36.084,17.9947
36.086,18.1927
36.088,18.3939
36.09,18.5983
36.092,18.806
36.094,19.0171
36.096,19.2315
36.098,19.4495
36.1,19.671
36.102,19.8961
36.104,20.1249
36.106,20.3575
36.108,20.594
36.11,20.8344
36.112,21.0788
36.114,21.3274
36.116,21.5801
36.118,21.8372
36.12,22.0986
36.122,22.3645
36.124,22.6349
36.126,22.91
36.128,23.1899
36.13,23.4747
36.132,23.7644
36.134,24.0592
36.136,24.3592
36.138,24.6646
36.14,24.9753
36.142,25.2916
36.144,25.6136
36.146,25.9414
36.148,26.2751
36.15,26.6149
36.152,26.9608
36.154,27.3131
36.156,27.6719
36.158,28.0373
36.16,28.4094
36.162,28.7885
36.164,29.1747
36.166,29.5681
36.168,29.969
36.17,30.3774
36.172,30.7936
36.174,31.2177
36.176,31.6499
36.178,32.0904
36.18,32.5395
36.182,32.9972
36.184,33.4638
36.186,33.9395
36.188,34.4245
36.19,34.919
36.192,35.4233
36.194,35.9375
36.196,36.462
36.198,36.9968
36.2,37.5424
36.202,38.0989
36.204,38.6665
36.206,39.2456
36.208,39.8364
36.21,40.4392
36.212,41.0542
36.214,41.6817
36.216,42.3221
36.218,42.9755
36.22,43.6424
36.222,44.3229
36.224,45.0175
36.226,45.7264
36.228,46.45
36.23,47.1885
36.232,47.9423
36.234,48.7118
36.236,49.4972
36.238,50.299
36.24,51.1175
36.242,51.953
36.244,52.8058
36.246,53.6764
36.248,54.5651
36.25,55.4723
36.252,56.3983
36.254,57.3435
36.256,58.3082
36.258,59.2929
36.26,60.2978
36.262,61.3234
36.264,62.3701
36.266,63.438
36.268,64.5277
36.27,65.6395
36.272,66.7736
36.274,67.9304
36.276,69.1101
36.278,70.3132
36.28,71.5399
36.282,72.7904
36.284,74.0649
36.286,75.3638
36.288,76.6871
36.29,78.035
36.292,79.4077
36.294,80.8052
36.296,82.2276
36.298,83.6749
36.3,85.1471
36.302,86.644
36.304,88.1656
36.306,89.7115
36.308,91.2817
36.31,92.8756
36.312,94.493
36.314,96.1332
36.316,97.7958
36.318,99.4801
36.32,101.185
36.322,102.91
36.324,104.655
36.326,106.417
36.328,108.196
36.33,109.99
36.332,111.799
36.334,113.619
36.336,115.451
36.338,117.291
36.34,119.138
36.342,120.989
36.344,122.843
36.346,124.696
36.348,126.547
36.35,128.392
36.352,130.228
36.354,132.053
36.356,133.863
36.358,135.654
36.36,137.424
36.362,139.169
36.364,140.884
36.366,142.567
36.368,144.212
36.37,145.817
36.372,147.378
36.374,148.889
36.376,150.347
36.378,151.749
36.38,153.09
36.382,154.365
36.384,155.572
36.386,156.707
36.388,157.765
36.39,158.744
36.392,159.641
36.394,160.451
36.396,161.173
36.398,161.805
36.4,162.342
36.402,162.785
36.404,163.131
36.406,163.379
36.408,163.528
36.41,163.578
36.412,163.528
36.414,163.379
36.416,163.131
36.418,162.785
36.42,162.342
36.422,161.805
36.424,161.173
36.426,160.451
36.428,159.641
36.43,158.744
36.432,157.765
36.434,156.707
36.436,155.572
36.438,154.365
36.44,153.09
36.442,151.749
36.444,150.347
36.446,148.889
36.448,147.378
36.45,145.817
36.452,144.212
36.454,142.567
36.456,140.884
36.458,139.169
36.46,137.424
36.462,135.654
36.464,133.863
36.466,132.053
36.468,130.228
36.47,128.392
36.472,126.547
36.474,124.696
36.476,122.843
36.478,120.989
36.48,119.138
36.482,117.291
36.484,115.451
36.486,113.619
36.488,111.799
36.49,109.99
36.492,108.196
36.494,106.417
36.496,104.655
36.498,102.91
36.5,101.185
36.502,99.4801
36.504,97.7958
36.506,96.1332
36.508,94.493
36.51,92.8756
36.512,91.2817
36.514,89.7115
36.516,88.1656
36.518,86.644
36.52,85.1471
36.522,83.6749
36.524,82.2276
36.526,80.8052
36.528,79.4077
36.53,78.035
36.532,76.6871
36.534,75.3638
36.536,74.0649
36.538,72.7904
36.54,71.5399
36.542,70.3132
36.544,69.1101
36.546,67.9304
36.548,66.7736
36.55,65.6395
36.552,64.5277
36.554,63.438
36.556,62.3701
36.558,61.3234
36.56,60.2978
36.562,59.2929
36.564,58.3082
36.566,57.3435
36.568,56.3983
36.57,55.4723
36.572,54.5651
36.574,53.6764
36.576,52.8058
36.578,51.953
36.58,51.1175
36.582,50.299
36.584,49.4972
36.586,48.7118
36.588,47.9423
36.59,47.1885
36.592,46.45
36.594,45.7264
36.596,45.0175
36.598,44.3229
36.6,43.6424
36.602,42.9755
36.604,42.3221
36.606,41.6817
36.608,41.0542
36.61,40.4392
36.612,39.8364
36.614,39.2456
36.616,38.6665
36.618,38.0989
36.62,37.5424
36.622,36.9968
36.624,36.462
36.626,35.9375
36.628,35.4233
36.63,34.919
36.632,34.4245
36.634,33.9395
36.636,33.4638
36.638,32.9972
36.64,32.5395
36.642,32.0904
36.644,31.6499
36.646,31.2177
36.648,30.7936
36.65,30.3774
36.652,29.969
36.654,29.5681
36.656,29.1747
36.658,28.7885
36.66,28.4094
36.662,28.0373
36.664,27.6719
36.666,27.3131
36.668,26.9608
36.67,26.6149
36.672,26.2751
36.674,25.9414
36.676,25.6136
36.678,25.2916
36.68,24.9753
36.682,24.6646
36.684,24.3592
36.686,24.0592
36.688,23.7644
36.69,23.4747
36.692,23.1899
36.694,22.91
36.696,22.6349
36.698,22.3645
36.7,22.0986
36.702,21.8372
36.704,21.5801
36.706,21.3274
36.708,21.0788
36.71,20.8344
36.712,20.594
36.714,20.3575
36.716,20.1249
36.718,19.8961
36.72,19.671
36.722,19.4495
36.724,19.2315
36.726,19.0171
36.728,18.806
36.73,18.5983
36.732,18.3939
36.734,18.1927
36.736,17.9947
36.738,17.7997
36.74,17.6077
36.742,17.4188
36.744,17.2327
36.746,17.0495
36.748,16.869
36.75,16.6914
36.752,16.5164
36.754,16.344
36.756,16.1742
36.758,16.007
36.76,15.8422
36.762,15.6799
36.764,15.52
36.766,15.3625
36.768,15.2072
36.77,15.0542
36.772,14.9034
36.774,14.7548
36.776,14.6084
36.778,14.464
36.78,14.3217
36.782,14.1815
36.784,14.0432
36.786,13.9069
36.788,13.7725
36.79,13.6399
36.792,13.5092
36.794,13.3804
36.796,13.2533
36.798,13.1279
36.8,13.0043
36.802,12.8824
36.804,12.7621
36.806,12.6434
36.808,12.5264
36.81,12.4109
36.812,12.297
36.814,12.1846
36.816,12.0737
36.818,11.9642
36.82,11.8562
36.822,11.7497
36.824,11.6445
36.826,11.5407
36.828,11.4382
36.83,11.337
36.832,11.2372
36.834,11.1386
36.836,11.0413
36.838,10.9453
36.84,10.8504
36.842,10.7568
36.844,10.6643
36.846,10.573
36.848,10.4829
36.85,10.3938
36.852,10.3059
36.854,10.219
36.856,10.1333
36.858,10.0485
36.86,9.96484
36.862,9.88217
36.864,9.8005
36.866,9.71981
36.868,9.6401
36.87,9.56134
36.872,9.48353
36.874,9.40664
36.876,9.33067
36.878,9.25559
36.88,9.1814
36.882,9.10808
36.884,9.03562
36.886,8.964
36.888,8.89321
36.89,8.82325
36.892,8.75409
36.894,8.68572
36.896,8.61814
36.898,8.55133
36.9,8.48528
36.902,8.41998
36.904,8.35541
36.906,8.29158
36.908,8.22845
36.91,8.16604
36.912,8.10432
36.914,8.04328
36.916,7.98292
36.918,7.92322
36.92,7.86419
36.922,7.80579
36.924,7.74804
36.926,7.69091
36.928,7.6344
36.93,7.5785
36.932,7.52321
36.934,7.46851
36.936,7.41439
36.938,7.36085
36.94,7.30788
36.942,7.25547
36.944,7.20361
36.946,7.1523
36.948,7.10152
36.95,7.05128
36.952,7.00156
36.954,6.95236
36.956,6.90366
36.958,6.85547
36.96,6.80777
36.962,6.76057
36.964,6.71384
36.966,6.66759
36.968,6.62181
36.97,6.5765
36.972,6.53164
36.974,6.48723
36.976,6.44327
36.978,6.39975
36.98,6.35666
36.982,6.31399
36.984,6.27176
36.986,6.22993
36.988,6.18852
36.99,6.14752
36.992,6.10691
36.994,6.06671
36.996,6.02689
36.998,5.98746
37,5.94841
37.002,5.90973
37.004,5.87143
37.006,5.83349
37.008,5.79592
37.01,5.7587
37.012,5.72184
37.014,5.68532
37.016,5.64915
37.018,5.61332
37.02,5.57782
37.022,5.54266
37.024,5.50782
37.026,5.47331
37.028,5.43912
37.03,5.40524
37.032,5.37168
37.034,5.33842
37.036,5.30547
37.038,5.27282
37.04,5.24046
37.042,5.2084
37.044,5.17663
37.046,5.14515
37.048,5.11395
37.05,5.08303
37.052,5.05238
37.054,5.02201
37.056,4.99191
37.058,4.96208
37.06,4.93251
37.062,4.9032
37.064,4.87415
37.066,4.84535
37.068,4.81681
37.07,4.78851
37.072,4.76047
37.074,4.73266
37.076,4.70509
37.078,4.67777
37.08,4.65067
37.082,4.62381
37.084,4.59718
37.086,4.57078
37.088,4.5446
37.09,4.51865
37.092,4.49291
37.094,4.46739
37.096,4.44209
37.098,4.41699
37.1,4.39211
37.102,4.36744
37.104,4.34297
37.106,4.3187
37.108,4.29464
37.11,4.27077
37.112,4.2471
37.114,4.22363
37.116,4.20035
37.118,4.17725
37.12,4.15435
37.122,4.13163
37.124,4.1091
37.126,4.08675
37.128,4.06458
37.13,4.04258
37.132,4.02077
37.134,3.99913
37.136,3.97766
37.138,3.95636
37.14,3.93523
37.142,3.91427
37.144,3.89348
37.146,3.87285
37.148,3.85238
37.15,3.83207
37.152,3.81192
37.154,3.79193
37.156,3.77209
37.158,3.75241
37.16,3.73288
37.162,3.7135
37.164,3.69427
37.166,3.67519
37.168,3.65625
37.17,3.63746
37.172,3.61881
37.174,3.60031
37.176,3.58194
37.178,3.56372
37.18,3.54563
37.182,3.52768
37.184,3.50986
37.186,3.49218
37.188,3.47463
37.19,3.45721
37.192,3.43992
37.194,3.42276
37.196,3.40572
37.198,3.38881
37.2,3.37203
37.202,3.35537
37.204,3.33883
37.206,3.32242
37.208,3.30612
37.21,3.28994
37.212,3.27388
37.214,3.25794
37.216,3.24211
37.218,3.22639
37.22,3.21079
37.222,3.19531
37.224,3.17993
37.226,3.16466
37.228,3.1495
37.23,3.13445
37.232,3.11951
37.234,3.10467
37.236,3.08994
37.238,3.07531
37.24,3.06078
37.242,3.04636
37.244,3.03204
37.246,3.01781
37.248,3.00369
37.25,2.98966
37.252,2.97574
37.254,2.9619
37.256,2.94817
37.258,2.93453
37.26,2.92098
37.262,2.90753
37.264,2.89417
37.266,2.8809
37.268,2.86772
37.27,2.85463
37.272,2.84162
37.274,2.82871
37.276,2.81588
37.278,2.80315
37.28,2.79049
37.282,2.77792
37.284,2.76544
37.286,2.75304
37.288,2.74072
37.29,2.72848
37.292,2.71633
37.294,2.70425
37.296,2.69226
37.298,2.68035
37.3,2.66851
37.302,2.65675
37.304,2.64507
37.306,2.63346
37.308,2.62193
37.31,2.61048
37.312,2.5991
37.314,2.58779
37.316,2.57656
37.318,2.5654
37.32,2.55431
37.322,2.54329
37.324,2.53235
37.326,2.52147
37.328,2.51067
37.33,2.49993
37.332,2.48926
37.334,2.47866
37.336,2.46812
37.338,2.45766
37.34,2.44726
37.342,2.43692
37.344,2.42665
37.346,2.41644
37.348,2.4063
37.35,2.39622
37.352,2.38621
37.354,2.37625
37.356,2.36636
37.358,2.35653
37.36,2.34676
37.362,2.33705
37.364,2.3274
37.366,2.31781
37.368,2.30828
37.37,2.29881
37.372,2.28939
37.374,2.28004
37.376,2.27074
37.378,2.26149
37.38,2.2523
37.382,2.24317
37.384,2.23409
37.386,2.22507
37.388,2.2161
37.39,2.20719
37.392,2.19833
37.394,2.18952
37.396,2.18077
37.398,2.17206
37.4,2.16341
37.402,2.15481
37.404,2.14626
37.406,2.13777
37.408,2.12932
37.41,2.12092
37.412,2.11257
37.414,2.10427
37.416,2.09602
37.418,2.08781
37.42,2.07966
37.422,2.07155
37.424,2.06349
37.426,2.05548
37.428,2.04751
37.43,2.03959
37.432,2.03171
37.434,2.02388
37.436,2.0161
37.438,2.00835
37.44,2.00066
37.442,1.99301
37.444,1.9854
37.446,1.97783
37.448,1.97031
37.45,1.96283
37.452,1.95539
37.454,1.948
37.456,1.94064
37.458,1.93333
37.46,1.92606
37.462,1.91883
37.464,1.91164
37.466,1.90449
37.468,1.89738
37.47,1.89031
37.472,1.88328
37.474,1.87628
37.476,1.86933
37.478,1.86241
37.48,1.85554
37.482,1.8487
37.484,1.8419
37.486,1.83513
37.488,1.82841
37.49,1.82172
37.492,1.81506
37.494,1.80844
37.496,1.80186
37.498,1.79532
37.5,1.78881
37.502,1.78233
37.504,1.77589
37.506,1.76949
37.508,1.76312
37.51,1.75678
37.512,1.75048
37.514,1.74421
37.516,1.73797
37.518,1.73177
37.52,1.7256
37.522,1.71946
37.524,1.71336
37.526,1.70729
37.528,1.70125
37.53,1.69524
37.532,1.68927
37.534,1.68332
37.536,1.67741
37.538,1.67153
37.54,1.66567
37.542,1.65985
37.544,1.65406
37.546,1.6483
37.548,1.64257
37.55,1.63687
37.552,1.6312
37.554,1.62556
37.556,1.61994
37.558,1.61436
37.56,1.60881
37.562,1.60328
37.564,1.59778
37.566,1.59231
37.568,1.58687
37.57,1.58145
37.572,1.57607
37.574,1.57071
37.576,1.56538
37.578,1.56007
37.58,1.55479
37.582,1.54954
37.584,1.54432
37.586,1.53912
37.588,1.53394
37.59,1.5288
37.592,1.52368
37.594,1.51858
37.596,1.51351
37.598,1.50847
37.6,1.50345
37.602,1.49845
37.604,1.49348
37.606,1.48854
37.608,1.48362
37.61,1.47872
37.612,1.47385
37.614,1.469
37.616,1.46417
37.618,1.45937
37.62,1.45459
37.622,1.44984
37.624,1.44511
37.626,1.4404
37.628,1.43572
37.63,1.43105
37.632,1.42641
37.634,1.4218
37.636,1.4172
37.638,1.41263
37.64,1.40808
37.642,1.40355
37.644,1.39904
37.646,1.39456
37.648,1.39009
37.65,1.38565
37.652,1.38123
37.654,1.37683
37.656,1.37245
37.658,1.36809
37.66,1.36375
37.662,1.35944
37.664,1.35514
37.666,1.35086
37.668,1.34661
37.67,1.34237
37.672,1.33815
37.674,1.33396
37.676,1.32978
37.678,1.32562
37.68,1.32148
37.682,1.31736
37.684,1.31326
37.686,1.30918
37.688,1.30512
37.69,1.30108
37.692,1.29706
37.694,1.29305
37.696,1.28906
37.698,1.28509
37.7,1.28114
37.702,1.27721
37.704,1.2733
37.706,1.2694
37.708,1.26552
37.71,1.26166
37.712,1.25782
37.714,1.25399
37.716,1.25018
37.718,1.24639
37.72,1.24262
37.722,1.23886
37.724,1.23512
37.726,1.2314
37.728,1.22769
37.73,1.224
37.732,1.22033
37.734,1.21667
37.736,1.21303
37.738,1.20941
37.74,1.2058
37.742,1.20221
37.744,1.19863
37.746,1.19507
37.748,1.19153
37.75,1.188
37.752,1.18449
37.754,1.18099
37.756,1.17751
37.758,1.17404
37.76,1.17059
37.762,1.16716
37.764,1.16373
37.766,1.16033
37.768,1.15694
37.77,1.15356
37.772,1.1502
37.774,1.14685
37.776,1.14352
37.778,1.1402
37.78,1.1369
37.782,1.13361
37.784,1.13033
37.786,1.12707
37.788,1.12383
37.79,1.12059
37.792,1.11738
37.794,1.11417
37.796,1.11098
37.798,1.1078
37.8,1.10464
37.802,1.10149
37.804,1.09835
37.806,1.09523
37.808,1.09211
37.81,1.08902
37.812,1.08593
37.814,1.08286
37.816,1.0798
37.818,1.07676
37.82,1.07373
37.822,1.07071
37.824,1.0677
37.826,1.06471
37.828,1.06172
37.83,1.05875
37.832,1.0558
37.834,1.05285
37.836,1.04992
37.838,1.047
37.84,1.04409
37.842,1.0412
37.844,1.03831
37.846,1.03544
37.848,1.03258
37.85,1.02973
37.852,1.0269
37.854,1.02407
37.856,1.02126
37.858,1.01846
37.86,1.01567
37.862,1.01289
37.864,1.01012
37.866,1.00736
37.868,1.00462
37.87,1.00189
37.872,0.999163
37.874,0.996451
37.876,0.993751
37.878,0.991061
37.88,0.988383
37.882,0.985715
37.884,0.983058
37.886,0.980411
37.888,0.977776
37.89,0.97515
37.892,0.972536
37.894,0.969932
37.896,0.967338
37.898,0.964755
37.9,0.962182
37.902,0.959619
37.904,0.957067
37.906,0.954524
37.908,0.951992
37.91,0.94947
37.912,0.946958
37.914,0.944455
37.916,0.941963
37.918,0.93948
37.92,0.937007
37.922,0.934544
37.924,0.932091
37.926,0.929647
37.928,0.927213
37.93,0.924788
37.932,0.922373
37.934,0.919968
37.936,0.917571
37.938,0.915184
37.94,0.912806
37.942,0.910438
37.944,0.908079
37.946,0.905728
37.948,0.903387
37.95,0.901055
37.952,0.898732
37.954,0.896418
37.956,0.894113
37.958,0.891817
37.96,0.889529
37.962,0.887251
37.964,0.884981
37.966,0.882719
37.968,0.880467
37.97,0.878223
37.972,0.875987
37.974,0.87376
37.976,0.871542
37.978,0.869332
37.98,0.86713
37.982,0.864937
37.984,0.862751
37.986,0.860575
37.988,0.858406
37.99,0.856246
37.992,0.854093
37.994,0.851949
37.996,0.849813
37.998,0.847685
37.999,0.846624