File: pb/bose_2007/60nm/xrd/curve_total_fit.dat
35.0,563.674
35.002,563.677
35.004,563.68
35.006,563.683
35.008,563.686
35.01,563.689
35.012,563.692
35.014,563.695
35.016,563.698
35.018,563.701
35.02,563.705
35.022,563.708
35.024,563.711
35.026,563.714
35.028,563.717
35.03,563.721
35.032,563.724
35.034,563.727
35.036,563.73
35.038,563.734
35.04,563.737
35.042,563.74
35.044,563.744
35.046,563.747
35.048,563.75
35.05,563.754
35.052,563.757
35.054,563.76
35.056,563.764
35.058,563.767
35.06,563.771
35.062,563.774
35.064,563.778
35.066,563.781
35.068,563.784
35.07,563.788
35.072,563.792
35.074,563.795
35.076,563.799
35.078,563.802
35.08,563.806
35.082,563.809
35.084,563.813
35.086,563.817
35.088,563.82
35.09,563.824
35.092,563.828
35.094,563.831
35.096,563.835
35.098,563.839
35.1,563.843
35.102,563.846
35.104,563.85
35.106,563.854
35.108,563.858
35.11,563.862
35.112,563.866
35.114,563.869
35.116,563.873
35.118,563.877
35.12,563.881
35.122,563.885
35.124,563.889
35.126,563.893
35.128,563.897
35.13,563.901
35.132,563.905
35.134,563.909
35.136,563.913
35.138,563.917
35.14,563.921
35.142,563.926
35.144,563.93
35.146,563.934
35.148,563.938
35.15,563.942
35.152,563.947
35.154,563.951
35.156,563.955
35.158,563.959
35.16,563.964
35.162,563.968
35.164,563.972
35.166,563.977
35.168,563.981
35.17,563.986
35.172,563.99
35.174,563.995
35.176,563.999
35.178,564.004
35.18,564.008
35.182,564.013
35.184,564.017
35.186,564.022
35.188,564.026
35.19,564.031
35.192,564.036
35.194,564.04
35.196,564.045
35.198,564.05
35.2,564.055
35.202,564.059
35.204,564.064
35.206,564.069
35.208,564.074
35.21,564.079
35.212,564.084
35.214,564.089
35.216,564.093
35.218,564.098
35.22,564.103
35.222,564.108
35.224,564.114
35.226,564.119
35.228,564.124
35.23,564.129
35.232,564.134
35.234,564.139
35.236,564.144
35.238,564.15
35.24,564.155
35.242,564.16
35.244,564.165
35.246,564.171
35.248,564.176
35.25,564.181
35.252,564.187
35.254,564.192
35.256,564.198
35.258,564.203
35.26,564.209
35.262,564.214
35.264,564.22
35.266,564.226
35.268,564.231
35.27,564.237
35.272,564.243
35.274,564.248
35.276,564.254
35.278,564.26
35.28,564.266
35.282,564.272
35.284,564.277
35.286,564.283
35.288,564.289
35.29,564.295
35.292,564.301
35.294,564.307
35.296,564.313
35.298,564.319
35.3,564.326
35.302,564.332
35.304,564.338
35.306,564.344
35.308,564.35
35.31,564.357
35.312,564.363
35.314,564.369
35.316,564.376
35.318,564.382
35.32,564.389
35.322,564.395
35.324,564.402
35.326,564.408
35.328,564.415
35.33,564.422
35.332,564.428
35.334,564.435
35.336,564.442
35.338,564.449
35.34,564.456
35.342,564.462
35.344,564.469
35.346,564.476
35.348,564.483
35.35,564.49
35.352,564.497
35.354,564.504
35.356,564.512
35.358,564.519
35.36,564.526
35.362,564.533
35.364,564.541
35.366,564.548
35.368,564.555
35.37,564.563
35.372,564.57
35.374,564.578
35.376,564.585
35.378,564.593
35.38,564.601
35.382,564.608
35.384,564.616
35.386,564.624
35.388,564.632
35.39,564.64
35.392,564.648
35.394,564.655
35.396,564.663
35.398,564.672
35.4,564.68
35.402,564.688
35.404,564.696
35.406,564.704
35.408,564.713
35.41,564.721
35.412,564.729
35.414,564.738
35.416,564.746
35.418,564.755
35.42,564.763
35.422,564.772
35.424,564.781
35.426,564.79
35.428,564.798
35.43,564.807
35.432,564.816
35.434,564.825
35.436,564.834
35.438,564.843
35.44,564.852
35.442,564.861
35.444,564.871
35.446,564.88
35.448,564.889
35.45,564.899
35.452,564.908
35.454,564.918
35.456,564.927
35.458,564.937
35.46,564.947
35.462,564.957
35.464,564.966
35.466,564.976
35.468,564.986
35.47,564.996
35.472,565.006
35.474,565.016
35.476,565.027
35.478,565.037
35.48,565.047
35.482,565.058
35.484,565.068
35.486,565.079
35.488,565.089
35.49,565.1
35.492,565.111
35.494,565.121
35.496,565.132
35.498,565.143
35.5,565.154
35.502,565.165
35.504,565.177
35.506,565.188
35.508,565.199
35.51,565.21
35.512,565.222
35.514,565.233
35.516,565.245
35.518,565.257
35.52,565.269
35.522,565.28
35.524,565.292
35.526,565.304
35.528,565.316
35.53,565.328
35.532,565.341
35.534,565.353
35.536,565.365
35.538,565.378
35.54,565.39
35.542,565.403
35.544,565.416
35.546,565.429
35.548,565.442
35.55,565.455
35.552,565.468
35.554,565.481
35.556,565.494
35.558,565.508
35.56,565.521
35.562,565.535
35.564,565.548
35.566,565.562
35.568,565.576
35.57,565.59
35.572,565.604
35.574,565.618
35.576,565.632
35.578,565.646
35.58,565.661
35.582,565.675
35.584,565.69
35.586,565.705
35.588,565.72
35.59,565.734
35.592,565.75
35.594,565.765
35.596,565.78
35.598,565.795
35.6,565.811
35.602,565.826
35.604,565.842
35.606,565.858
35.608,565.874
35.61,565.89
35.612,565.906
35.614,565.922
35.616,565.939
35.618,565.955
35.62,565.972
35.622,565.989
35.624,566.006
35.626,566.023
35.628,566.04
35.63,566.057
35.632,566.075
35.634,566.092
35.636,566.11
35.638,566.128
35.64,566.146
35.642,566.164
35.644,566.182
35.646,566.2
35.648,566.219
35.65,566.237
35.652,566.256
35.654,566.275
35.656,566.294
35.658,566.313
35.66,566.333
35.662,566.352
35.664,566.372
35.666,566.392
35.668,566.412
35.67,566.432
35.672,566.452
35.674,566.473
35.676,566.493
35.678,566.514
35.68,566.535
35.682,566.556
35.684,566.578
35.686,566.599
35.688,566.621
35.69,566.643
35.692,566.665
35.694,566.687
35.696,566.709
35.698,566.732
35.7,566.754
35.702,566.777
35.704,566.8
35.706,566.824
35.708,566.847
35.71,566.871
35.712,566.895
35.714,566.919
35.716,566.943
35.718,566.967
35.72,566.992
35.722,567.017
35.724,567.042
35.726,567.067
35.728,567.093
35.73,567.119
35.732,567.145
35.734,567.171
35.736,567.197
35.738,567.224
35.74,567.251
35.742,567.278
35.744,567.305
35.746,567.333
35.748,567.36
35.75,567.389
35.752,567.417
35.754,567.445
35.756,567.474
35.758,567.503
35.76,567.533
35.762,567.562
35.764,567.592
35.766,567.622
35.768,567.652
35.77,567.683
35.772,567.714
35.774,567.745
35.776,567.777
35.778,567.808
35.78,567.84
35.782,567.873
35.784,567.905
35.786,567.938
35.788,567.972
35.79,568.005
35.792,568.039
35.794,568.073
35.796,568.108
35.798,568.143
35.8,568.178
35.802,568.213
35.804,568.249
35.806,568.285
35.808,568.322
35.81,568.359
35.812,568.396
35.814,568.433
35.816,568.471
35.818,568.51
35.82,568.548
35.822,568.587
35.824,568.627
35.826,568.667
35.828,568.707
35.83,568.748
35.832,568.789
35.834,568.83
35.836,568.872
35.838,568.914
35.84,568.957
35.842,569
35.844,569.043
35.846,569.087
35.848,569.132
35.85,569.176
35.852,569.222
35.854,569.268
35.856,569.314
35.858,569.361
35.86,569.408
35.862,569.455
35.864,569.504
35.866,569.552
35.868,569.602
35.87,569.651
35.872,569.702
35.874,569.752
35.876,569.804
35.878,569.855
35.88,569.908
35.882,569.961
35.884,570.014
35.886,570.069
35.888,570.123
35.89,570.179
35.892,570.234
35.894,570.291
35.896,570.348
35.898,570.406
35.9,570.464
35.902,570.523
35.904,570.583
35.906,570.643
35.908,570.704
35.91,570.766
35.912,570.828
35.914,570.892
35.916,570.955
35.918,571.02
35.92,571.085
35.922,571.151
35.924,571.218
35.926,571.286
35.928,571.354
35.93,571.423
35.932,571.493
35.934,571.564
35.936,571.636
35.938,571.708
35.94,571.781
35.942,571.856
35.944,571.931
35.946,572.007
35.948,572.084
35.95,572.161
35.952,572.24
35.954,572.32
35.956,572.4
35.958,572.482
35.96,572.565
35.962,572.649
35.964,572.733
35.966,572.819
35.968,572.906
35.97,572.994
35.972,573.083
35.974,573.173
35.976,573.264
35.978,573.357
35.98,573.45
35.982,573.545
35.984,573.641
35.986,573.739
35.988,573.837
35.99,573.937
35.992,574.038
35.994,574.141
35.996,574.244
35.998,574.35
36,574.456
36.002,574.564
36.004,574.674
36.006,574.785
36.008,574.897
36.01,575.011
36.012,575.126
36.014,575.243
36.016,575.362
36.018,575.482
36.02,575.604
36.022,575.728
36.024,575.853
36.026,575.98
36.028,576.109
36.03,576.24
36.032,576.372
36.034,576.507
36.036,576.643
36.038,576.781
36.04,576.922
36.042,577.064
36.044,577.208
36.046,577.355
36.048,577.503
36.05,577.654
36.052,577.807
36.054,577.962
36.056,578.12
36.058,578.28
36.06,578.442
36.062,578.607
36.064,578.774
36.066,578.944
36.068,579.116
36.07,579.291
36.072,579.469
36.074,579.649
36.076,579.833
36.078,580.019
36.08,580.208
36.082,580.4
36.084,580.595
36.086,580.793
36.088,580.994
36.09,581.198
36.092,581.406
36.094,581.617
36.096,581.832
36.098,582.049
36.1,582.271
36.102,582.496
36.104,582.725
36.106,582.958
36.108,583.194
36.11,583.434
36.112,583.679
36.114,583.927
36.116,584.18
36.118,584.437
36.12,584.699
36.122,584.964
36.124,585.235
36.126,585.51
36.128,585.79
36.13,586.075
36.132,586.364
36.134,586.659
36.136,586.959
36.138,587.265
36.14,587.575
36.142,587.892
36.144,588.214
36.146,588.541
36.148,588.875
36.15,589.215
36.152,589.561
36.154,589.913
36.156,590.272
36.158,590.637
36.16,591.009
36.162,591.389
36.164,591.775
36.166,592.168
36.168,592.569
36.17,592.977
36.172,593.394
36.174,593.818
36.176,594.25
36.178,594.69
36.18,595.139
36.182,595.597
36.184,596.064
36.186,596.539
36.188,597.024
36.19,597.519
36.192,598.023
36.194,598.538
36.196,599.062
36.198,599.597
36.2,600.142
36.202,600.699
36.204,601.267
36.206,601.846
36.208,602.436
36.21,603.039
36.212,603.654
36.214,604.282
36.216,604.922
36.218,605.576
36.22,606.242
36.222,606.923
36.224,607.617
36.226,608.326
36.228,609.05
36.23,609.788
36.232,610.542
36.234,611.312
36.236,612.097
36.238,612.899
36.24,613.717
36.242,614.553
36.244,615.406
36.246,616.276
36.248,617.165
36.25,618.072
36.252,618.998
36.254,619.943
36.256,620.908
36.258,621.893
36.26,622.898
36.262,623.923
36.264,624.97
36.266,626.038
36.268,627.128
36.27,628.239
36.272,629.374
36.274,630.53
36.276,631.71
36.278,632.913
36.28,634.14
36.282,635.39
36.284,636.665
36.286,637.964
36.288,639.287
36.29,640.635
36.292,642.008
36.294,643.405
36.296,644.828
36.298,646.275
36.3,647.747
36.302,649.244
36.304,650.766
36.306,652.312
36.308,653.882
36.31,655.476
36.312,657.093
36.314,658.733
36.316,660.396
36.318,662.08
36.32,663.785
36.322,665.51
36.324,667.255
36.326,669.017
36.328,670.796
36.33,672.59
36.332,674.399
36.334,676.219
36.336,678.051
36.338,679.891
36.34,681.738
36.342,683.589
36.344,685.443
36.346,687.296
36.348,689.147
36.35,690.992
36.352,692.828
36.354,694.653
36.356,696.463
36.358,698.254
36.36,700.024
36.362,701.769
36.364,703.484
36.366,705.167
36.368,706.812
36.37,708.417
36.372,709.978
36.374,711.489
36.376,712.947
36.378,714.349
36.38,715.69
36.382,716.965
36.384,718.172
36.386,719.307
36.388,720.365
36.39,721.344
36.392,722.241
36.394,723.051
36.396,723.773
36.398,724.405
36.4,724.942
36.402,725.385
36.404,725.731
36.406,725.979
36.408,726.128
36.41,726.178
36.412,726.128
36.414,725.979
36.416,725.731
36.418,725.385
36.42,724.942
36.422,724.405
36.424,723.773
36.426,723.051
36.428,722.241
36.43,721.344
36.432,720.365
36.434,719.307
36.436,718.172
36.438,716.965
36.44,715.69
36.442,714.349
36.444,712.947
36.446,711.489
36.448,709.978
36.45,708.417
36.452,706.812
36.454,705.167
36.456,703.484
36.458,701.769
36.46,700.024
36.462,698.254
36.464,696.463
36.466,694.653
36.468,692.828
36.47,690.992
36.472,689.147
36.474,687.296
36.476,685.443
36.478,683.589
36.48,681.738
36.482,679.891
36.484,678.051
36.486,676.219
36.488,674.399
36.49,672.59
36.492,670.796
36.494,669.017
36.496,667.255
36.498,665.51
36.5,663.785
36.502,662.08
36.504,660.396
36.506,658.733
36.508,657.093
36.51,655.476
36.512,653.882
36.514,652.312
36.516,650.766
36.518,649.244
36.52,647.747
36.522,646.275
36.524,644.828
36.526,643.405
36.528,642.008
36.53,640.635
36.532,639.287
36.534,637.964
36.536,636.665
36.538,635.39
36.54,634.14
36.542,632.913
36.544,631.71
36.546,630.53
36.548,629.374
36.55,628.239
36.552,627.128
36.554,626.038
36.556,624.97
36.558,623.923
36.56,622.898
36.562,621.893
36.564,620.908
36.566,619.943
36.568,618.998
36.57,618.072
36.572,617.165
36.574,616.276
36.576,615.406
36.578,614.553
36.58,613.717
36.582,612.899
36.584,612.097
36.586,611.312
36.588,610.542
36.59,609.788
36.592,609.05
36.594,608.326
36.596,607.617
36.598,606.923
36.6,606.242
36.602,605.576
36.604,604.922
36.606,604.282
36.608,603.654
36.61,603.039
36.612,602.436
36.614,601.846
36.616,601.267
36.618,600.699
36.62,600.142
36.622,599.597
36.624,599.062
36.626,598.538
36.628,598.023
36.63,597.519
36.632,597.024
36.634,596.539
36.636,596.064
36.638,595.597
36.64,595.139
36.642,594.69
36.644,594.25
36.646,593.818
36.648,593.394
36.65,592.977
36.652,592.569
36.654,592.168
36.656,591.775
36.658,591.389
36.66,591.009
36.662,590.637
36.664,590.272
36.666,589.913
36.668,589.561
36.67,589.215
36.672,588.875
36.674,588.541
36.676,588.214
36.678,587.892
36.68,587.575
36.682,587.265
36.684,586.959
36.686,586.659
36.688,586.364
36.69,586.075
36.692,585.79
36.694,585.51
36.696,585.235
36.698,584.964
36.7,584.699
36.702,584.437
36.704,584.18
36.706,583.927
36.708,583.679
36.71,583.434
36.712,583.194
36.714,582.958
36.716,582.725
36.718,582.496
36.72,582.271
36.722,582.049
36.724,581.832
36.726,581.617
36.728,581.406
36.73,581.198
36.732,580.994
36.734,580.793
36.736,580.595
36.738,580.4
36.74,580.208
36.742,580.019
36.744,579.833
36.746,579.649
36.748,579.469
36.75,579.291
36.752,579.116
36.754,578.944
36.756,578.774
36.758,578.607
36.76,578.442
36.762,578.28
36.764,578.12
36.766,577.962
36.768,577.807
36.77,577.654
36.772,577.503
36.774,577.355
36.776,577.208
36.778,577.064
36.78,576.922
36.782,576.781
36.784,576.643
36.786,576.507
36.788,576.372
36.79,576.24
36.792,576.109
36.794,575.98
36.796,575.853
36.798,575.728
36.8,575.604
36.802,575.482
36.804,575.362
36.806,575.243
36.808,575.126
36.81,575.011
36.812,574.897
36.814,574.785
36.816,574.674
36.818,574.564
36.82,574.456
36.822,574.35
36.824,574.244
36.826,574.141
36.828,574.038
36.83,573.937
36.832,573.837
36.834,573.739
36.836,573.641
36.838,573.545
36.84,573.45
36.842,573.357
36.844,573.264
36.846,573.173
36.848,573.083
36.85,572.994
36.852,572.906
36.854,572.819
36.856,572.733
36.858,572.649
36.86,572.565
36.862,572.482
36.864,572.4
36.866,572.32
36.868,572.24
36.87,572.161
36.872,572.084
36.874,572.007
36.876,571.931
36.878,571.856
36.88,571.781
36.882,571.708
36.884,571.636
36.886,571.564
36.888,571.493
36.89,571.423
36.892,571.354
36.894,571.286
36.896,571.218
36.898,571.151
36.9,571.085
36.902,571.02
36.904,570.955
36.906,570.892
36.908,570.828
36.91,570.766
36.912,570.704
36.914,570.643
36.916,570.583
36.918,570.523
36.92,570.464
36.922,570.406
36.924,570.348
36.926,570.291
36.928,570.234
36.93,570.179
36.932,570.123
36.934,570.069
36.936,570.014
36.938,569.961
36.94,569.908
36.942,569.855
36.944,569.804
36.946,569.752
36.948,569.702
36.95,569.651
36.952,569.602
36.954,569.552
36.956,569.504
36.958,569.455
36.96,569.408
36.962,569.361
36.964,569.314
36.966,569.268
36.968,569.222
36.97,569.176
36.972,569.132
36.974,569.087
36.976,569.043
36.978,569
36.98,568.957
36.982,568.914
36.984,568.872
36.986,568.83
36.988,568.789
36.99,568.748
36.992,568.707
36.994,568.667
36.996,568.627
36.998,568.587
37,568.548
37.002,568.51
37.004,568.471
37.006,568.433
37.008,568.396
37.01,568.359
37.012,568.322
37.014,568.285
37.016,568.249
37.018,568.213
37.02,568.178
37.022,568.143
37.024,568.108
37.026,568.073
37.028,568.039
37.03,568.005
37.032,567.972
37.034,567.938
37.036,567.905
37.038,567.873
37.04,567.84
37.042,567.808
37.044,567.777
37.046,567.745
37.048,567.714
37.05,567.683
37.052,567.652
37.054,567.622
37.056,567.592
37.058,567.562
37.06,567.533
37.062,567.503
37.064,567.474
37.066,567.445
37.068,567.417
37.07,567.389
37.072,567.36
37.074,567.333
37.076,567.305
37.078,567.278
37.08,567.251
37.082,567.224
37.084,567.197
37.086,567.171
37.088,567.145
37.09,567.119
37.092,567.093
37.094,567.067
37.096,567.042
37.098,567.017
37.1,566.992
37.102,566.967
37.104,566.943
37.106,566.919
37.108,566.895
37.11,566.871
37.112,566.847
37.114,566.824
37.116,566.8
37.118,566.777
37.12,566.754
37.122,566.732
37.124,566.709
37.126,566.687
37.128,566.665
37.13,566.643
37.132,566.621
37.134,566.599
37.136,566.578
37.138,566.556
37.14,566.535
37.142,566.514
37.144,566.493
37.146,566.473
37.148,566.452
37.15,566.432
37.152,566.412
37.154,566.392
37.156,566.372
37.158,566.352
37.16,566.333
37.162,566.313
37.164,566.294
37.166,566.275
37.168,566.256
37.17,566.237
37.172,566.219
37.174,566.2
37.176,566.182
37.178,566.164
37.18,566.146
37.182,566.128
37.184,566.11
37.186,566.092
37.188,566.075
37.19,566.057
37.192,566.04
37.194,566.023
37.196,566.006
37.198,565.989
37.2,565.972
37.202,565.955
37.204,565.939
37.206,565.922
37.208,565.906
37.21,565.89
37.212,565.874
37.214,565.858
37.216,565.842
37.218,565.826
37.22,565.811
37.222,565.795
37.224,565.78
37.226,565.765
37.228,565.75
37.23,565.734
37.232,565.72
37.234,565.705
37.236,565.69
37.238,565.675
37.24,565.661
37.242,565.646
37.244,565.632
37.246,565.618
37.248,565.604
37.25,565.59
37.252,565.576
37.254,565.562
37.256,565.548
37.258,565.535
37.26,565.521
37.262,565.508
37.264,565.494
37.266,565.481
37.268,565.468
37.27,565.455
37.272,565.442
37.274,565.429
37.276,565.416
37.278,565.403
37.28,565.39
37.282,565.378
37.284,565.365
37.286,565.353
37.288,565.341
37.29,565.328
37.292,565.316
37.294,565.304
37.296,565.292
37.298,565.28
37.3,565.269
37.302,565.257
37.304,565.245
37.306,565.233
37.308,565.222
37.31,565.21
37.312,565.199
37.314,565.188
37.316,565.177
37.318,565.165
37.32,565.154
37.322,565.143
37.324,565.132
37.326,565.121
37.328,565.111
37.33,565.1
37.332,565.089
37.334,565.079
37.336,565.068
37.338,565.058
37.34,565.047
37.342,565.037
37.344,565.027
37.346,565.016
37.348,565.006
37.35,564.996
37.352,564.986
37.354,564.976
37.356,564.966
37.358,564.957
37.36,564.947
37.362,564.937
37.364,564.927
37.366,564.918
37.368,564.908
37.37,564.899
37.372,564.889
37.374,564.88
37.376,564.871
37.378,564.861
37.38,564.852
37.382,564.843
37.384,564.834
37.386,564.825
37.388,564.816
37.39,564.807
37.392,564.798
37.394,564.79
37.396,564.781
37.398,564.772
37.4,564.763
37.402,564.755
37.404,564.746
37.406,564.738
37.408,564.729
37.41,564.721
37.412,564.713
37.414,564.704
37.416,564.696
37.418,564.688
37.42,564.68
37.422,564.672
37.424,564.663
37.426,564.655
37.428,564.648
37.43,564.64
37.432,564.632
37.434,564.624
37.436,564.616
37.438,564.608
37.44,564.601
37.442,564.593
37.444,564.585
37.446,564.578
37.448,564.57
37.45,564.563
37.452,564.555
37.454,564.548
37.456,564.541
37.458,564.533
37.46,564.526
37.462,564.519
37.464,564.512
37.466,564.504
37.468,564.497
37.47,564.49
37.472,564.483
37.474,564.476
37.476,564.469
37.478,564.462
37.48,564.456
37.482,564.449
37.484,564.442
37.486,564.435
37.488,564.428
37.49,564.422
37.492,564.415
37.494,564.408
37.496,564.402
37.498,564.395
37.5,564.389
37.502,564.382
37.504,564.376
37.506,564.369
37.508,564.363
37.51,564.357
37.512,564.35
37.514,564.344
37.516,564.338
37.518,564.332
37.52,564.326
37.522,564.319
37.524,564.313
37.526,564.307
37.528,564.301
37.53,564.295
37.532,564.289
37.534,564.283
37.536,564.277
37.538,564.272
37.54,564.266
37.542,564.26
37.544,564.254
37.546,564.248
37.548,564.243
37.55,564.237
37.552,564.231
37.554,564.226
37.556,564.22
37.558,564.214
37.56,564.209
37.562,564.203
37.564,564.198
37.566,564.192
37.568,564.187
37.57,564.181
37.572,564.176
37.574,564.171
37.576,564.165
37.578,564.16
37.58,564.155
37.582,564.15
37.584,564.144
37.586,564.139
37.588,564.134
37.59,564.129
37.592,564.124
37.594,564.119
37.596,564.114
37.598,564.108
37.6,564.103
37.602,564.098
37.604,564.093
37.606,564.089
37.608,564.084
37.61,564.079
37.612,564.074
37.614,564.069
37.616,564.064
37.618,564.059
37.62,564.055
37.622,564.05
37.624,564.045
37.626,564.04
37.628,564.036
37.63,564.031
37.632,564.026
37.634,564.022
37.636,564.017
37.638,564.013
37.64,564.008
37.642,564.004
37.644,563.999
37.646,563.995
37.648,563.99
37.65,563.986
37.652,563.981
37.654,563.977
37.656,563.972
37.658,563.968
37.66,563.964
37.662,563.959
37.664,563.955
37.666,563.951
37.668,563.947
37.67,563.942
37.672,563.938
37.674,563.934
37.676,563.93
37.678,563.926
37.68,563.921
37.682,563.917
37.684,563.913
37.686,563.909
37.688,563.905
37.69,563.901
37.692,563.897
37.694,563.893
37.696,563.889
37.698,563.885
37.7,563.881
37.702,563.877
37.704,563.873
37.706,563.869
37.708,563.866
37.71,563.862
37.712,563.858
37.714,563.854
37.716,563.85
37.718,563.846
37.72,563.843
37.722,563.839
37.724,563.835
37.726,563.831
37.728,563.828
37.73,563.824
37.732,563.82
37.734,563.817
37.736,563.813
37.738,563.809
37.74,563.806
37.742,563.802
37.744,563.799
37.746,563.795
37.748,563.792
37.75,563.788
37.752,563.784
37.754,563.781
37.756,563.778
37.758,563.774
37.76,563.771
37.762,563.767
37.764,563.764
37.766,563.76
37.768,563.757
37.77,563.754
37.772,563.75
37.774,563.747
37.776,563.744
37.778,563.74
37.78,563.737
37.782,563.734
37.784,563.73
37.786,563.727
37.788,563.724
37.79,563.721
37.792,563.717
37.794,563.714
37.796,563.711
37.798,563.708
37.8,563.705
37.802,563.701
37.804,563.698
37.806,563.695
37.808,563.692
37.81,563.689
37.812,563.686
37.814,563.683
37.816,563.68
37.818,563.677
37.82,563.674
37.822,563.671
37.824,563.668
37.826,563.665
37.828,563.662
37.83,563.659
37.832,563.656
37.834,563.653
37.836,563.65
37.838,563.647
37.84,563.644
37.842,563.641
37.844,563.638
37.846,563.635
37.848,563.633
37.85,563.63
37.852,563.627
37.854,563.624
37.856,563.621
37.858,563.618
37.86,563.616
37.862,563.613
37.864,563.61
37.866,563.607
37.868,563.605
37.87,563.602
37.872,563.599
37.874,563.596
37.876,563.594
37.878,563.591
37.88,563.588
37.882,563.586
37.884,563.583
37.886,563.58
37.888,563.578
37.89,563.575
37.892,563.573
37.894,563.57
37.896,563.567
37.898,563.565
37.9,563.562
37.902,563.56
37.904,563.557
37.906,563.555
37.908,563.552
37.91,563.549
37.912,563.547
37.914,563.544
37.916,563.542
37.918,563.539
37.92,563.537
37.922,563.535
37.924,563.532
37.926,563.53
37.928,563.527
37.93,563.525
37.932,563.522
37.934,563.52
37.936,563.518
37.938,563.515
37.94,563.513
37.942,563.51
37.944,563.508
37.946,563.506
37.948,563.503
37.95,563.501
37.952,563.499
37.954,563.496
37.956,563.494
37.958,563.492
37.96,563.49
37.962,563.487
37.964,563.485
37.966,563.483
37.968,563.48
37.97,563.478
37.972,563.476
37.974,563.474
37.976,563.472
37.978,563.469
37.98,563.467
37.982,563.465
37.984,563.463
37.986,563.461
37.988,563.458
37.99,563.456
37.992,563.454
37.994,563.452
37.996,563.45
37.998,563.448
37.999,563.447