File: boron_diamond/wang_2006/tc8.3/xrd/curve_1_fit.dat
88.0,3.43742
88.01,3.45797
88.02,3.47871
88.03,3.49964
88.04,3.52075
88.05,3.54206
88.06,3.56356
88.07,3.58525
88.08,3.60715
88.09,3.62924
88.1,3.65154
88.11,3.67404
88.12,3.69675
88.13,3.71967
88.14,3.74281
88.15,3.76616
88.16,3.78973
88.17,3.81352
88.18,3.83753
88.19,3.86178
88.2,3.88625
88.21,3.91095
88.22,3.93589
88.23,3.96107
88.24,3.98649
88.25,4.01215
88.26,4.03807
88.27,4.06423
88.28,4.09065
88.29,4.11733
88.3,4.14426
88.31,4.17146
88.32,4.19893
88.33,4.22667
88.34,4.25469
88.35,4.28298
88.36,4.31156
88.37,4.34042
88.38,4.36957
88.39,4.39902
88.4,4.42876
88.41,4.45881
88.42,4.48916
88.43,4.51982
88.44,4.5508
88.45,4.58209
88.46,4.61371
88.47,4.64565
88.48,4.67793
88.49,4.71054
88.5,4.74349
88.51,4.77679
88.52,4.81044
88.53,4.84444
88.54,4.87881
88.55,4.91354
88.56,4.94864
88.57,4.98412
88.58,5.01998
88.59,5.05623
88.6,5.09286
88.61,5.1299
88.62,5.16734
88.63,5.20519
88.64,5.24346
88.65,5.28215
88.66,5.32126
88.67,5.36081
88.68,5.40081
88.69,5.44125
88.7,5.48214
88.71,5.52349
88.72,5.56531
88.73,5.60761
88.74,5.65039
88.75,5.69366
88.76,5.73742
88.77,5.78169
88.78,5.82647
88.79,5.87177
88.8,5.9176
88.81,5.96397
88.82,6.01088
88.83,6.05834
88.84,6.10637
88.85,6.15496
88.86,6.20414
88.87,6.2539
88.88,6.30427
88.89,6.35524
88.9,6.40683
88.91,6.45904
88.92,6.5119
88.93,6.5654
88.94,6.61956
88.95,6.67439
88.96,6.7299
88.97,6.78611
88.98,6.84302
88.99,6.90064
89,6.95899
89.01,7.01808
89.02,7.07792
89.03,7.13852
89.04,7.1999
89.05,7.26208
89.06,7.32506
89.07,7.38885
89.08,7.45348
89.09,7.51896
89.1,7.58529
89.11,7.65251
89.12,7.72061
89.13,7.78963
89.14,7.85957
89.15,7.93045
89.16,8.00228
89.17,8.07509
89.18,8.1489
89.19,8.22371
89.2,8.29955
89.21,8.37644
89.22,8.4544
89.23,8.53344
89.24,8.61359
89.25,8.69487
89.26,8.77729
89.27,8.86089
89.28,8.94567
89.29,9.03167
89.3,9.11891
89.31,9.20741
89.32,9.2972
89.33,9.3883
89.34,9.48073
89.35,9.57452
89.36,9.66971
89.37,9.76631
89.38,9.86435
89.39,9.96386
89.4,10.0649
89.41,10.1674
89.42,10.2715
89.43,10.3773
89.44,10.4846
89.45,10.5936
89.46,10.7043
89.47,10.8167
89.48,10.9309
89.49,11.0469
89.5,11.1647
89.51,11.2844
89.52,11.4061
89.53,11.5296
89.54,11.6552
89.55,11.7829
89.56,11.9126
89.57,12.0445
89.58,12.1785
89.59,12.3148
89.6,12.4533
89.61,12.5942
89.62,12.7375
89.63,12.8832
89.64,13.0313
89.65,13.1821
89.66,13.3354
89.67,13.4914
89.68,13.6501
89.69,13.8116
89.7,13.976
89.71,14.1433
89.72,14.3136
89.73,14.4869
89.74,14.6634
89.75,14.843
89.76,15.026
89.77,15.2123
89.78,15.4021
89.79,15.5954
89.8,15.7923
89.81,15.9929
89.82,16.1974
89.83,16.4057
89.84,16.618
89.85,16.8344
89.86,17.055
89.87,17.2799
89.88,17.5093
89.89,17.7432
89.9,17.9817
89.91,18.225
89.92,18.4732
89.93,18.7264
89.94,18.9848
89.95,19.2485
89.96,19.5177
89.97,19.7924
89.98,20.073
89.99,20.3594
90,20.6519
90.01,20.9506
90.02,21.2558
90.03,21.5676
90.04,21.8862
90.05,22.2117
90.06,22.5445
90.07,22.8846
90.08,23.2324
90.09,23.588
90.1,23.9517
90.11,24.3237
90.12,24.7043
90.13,25.0937
90.14,25.4922
90.15,25.9001
90.16,26.3176
90.17,26.7451
90.18,27.1829
90.19,27.6313
90.2,28.0907
90.21,28.5613
90.22,29.0436
90.23,29.5379
90.24,30.0446
90.25,30.5642
90.26,31.0971
90.27,31.6436
90.28,32.2044
90.29,32.7798
90.3,33.3703
90.31,33.9765
90.32,34.5989
90.33,35.2381
90.34,35.8946
90.35,36.5692
90.36,37.2623
90.37,37.9748
90.38,38.7073
90.39,39.4604
90.4,40.2351
90.41,41.032
90.42,41.8521
90.43,42.6961
90.44,43.565
90.45,44.4597
90.46,45.3812
90.47,46.3307
90.48,47.309
90.49,48.3175
90.5,49.3572
90.51,50.4294
90.52,51.5354
90.53,52.6767
90.54,53.8545
90.55,55.0705
90.56,56.3262
90.57,57.6232
90.58,58.9633
90.59,60.3483
90.6,61.7801
90.61,63.2607
90.62,64.7922
90.63,66.3768
90.64,68.0168
90.65,69.7147
90.66,71.4729
90.67,73.2943
90.68,75.1814
90.69,77.1375
90.7,79.1654
90.71,81.2686
90.72,83.4504
90.73,85.7143
90.74,88.0643
90.75,90.5041
90.76,93.038
90.77,95.6704
90.78,98.4056
90.79,101.249
90.8,104.204
90.81,107.278
90.82,110.475
90.83,113.802
90.84,117.263
90.85,120.865
90.86,124.616
90.87,128.52
90.88,132.586
90.89,136.82
90.9,141.23
90.91,145.823
90.92,150.607
90.93,155.589
90.94,160.778
90.95,166.182
90.96,171.808
90.97,177.664
90.98,183.758
90.99,190.097
91,196.688
91.01,203.537
91.02,210.649
91.03,218.029
91.04,225.68
91.05,233.604
91.06,241.801
91.07,250.268
91.08,259
91.09,267.991
91.1,277.228
91.11,286.697
91.12,296.379
91.13,306.25
91.14,316.281
91.15,326.436
91.16,336.676
91.17,346.952
91.18,357.212
91.19,367.394
91.2,377.433
91.21,387.255
91.22,396.782
91.23,405.933
91.24,414.62
91.25,422.758
91.26,430.257
91.27,437.033
91.28,443.004
91.29,448.095
91.3,452.24
91.31,455.383
91.32,457.48
91.33,458.501
91.34,458.434
91.35,457.277
91.36,455.049
91.37,451.779
91.38,447.513
91.39,442.309
91.4,436.234
91.41,429.363
91.42,421.78
91.43,413.57
91.44,404.82
91.45,395.618
91.46,386.05
91.47,376.197
91.48,366.136
91.49,355.941
91.5,345.676
91.51,335.401
91.52,325.17
91.53,315.028
91.54,305.015
91.55,295.166
91.56,285.509
91.57,276.068
91.58,266.861
91.59,257.902
91.6,249.202
91.61,240.768
91.62,232.605
91.63,224.715
91.64,217.098
91.65,209.751
91.66,202.672
91.67,195.855
91.68,189.296
91.69,182.988
91.7,176.924
91.71,171.097
91.72,165.499
91.73,160.122
91.74,154.959
91.75,150.002
91.76,145.242
91.77,140.672
91.78,136.285
91.79,132.072
91.8,128.027
91.81,124.142
91.82,120.41
91.83,116.826
91.84,113.381
91.85,110.071
91.86,106.89
91.87,103.831
91.88,100.89
91.89,98.0603
91.9,95.338
91.91,92.7181
91.92,90.1961
91.93,87.7677
91.94,85.4286
91.95,83.1751
91.96,81.0033
91.97,78.9096
91.98,76.8908
91.99,74.9434
92,73.0646
92.01,71.2513
92.02,69.5007
92.03,67.8101
92.04,66.1771
92.05,64.5992
92.06,63.0742
92.07,61.5998
92.08,60.1739
92.09,58.7946
92.1,57.4599
92.11,56.1681
92.12,54.9174
92.13,53.7063
92.14,52.533
92.15,51.3962
92.16,50.2945
92.17,49.2263
92.18,48.1906
92.19,47.1859
92.2,46.2112
92.21,45.2653
92.22,44.3472
92.23,43.4557
92.24,42.5899
92.25,41.7489
92.26,40.9318
92.27,40.1377
92.28,39.3658
92.29,38.6152
92.3,37.8853
92.31,37.1752
92.32,36.4844
92.33,35.8122
92.34,35.1578
92.35,34.5207
92.36,33.9003
92.37,33.2961
92.38,32.7075
92.39,32.134
92.4,31.575
92.41,31.0302
92.42,30.499
92.43,29.981
92.44,29.4758
92.45,28.983
92.46,28.5022
92.47,28.033
92.48,27.5751
92.49,27.128
92.5,26.6915
92.51,26.2652
92.52,25.8489
92.53,25.4422
92.54,25.0449
92.55,24.6566
92.56,24.2771
92.57,23.9061
92.58,23.5434
92.59,23.1888
92.6,22.842
92.61,22.5028
92.62,22.1709
92.63,21.8462
92.64,21.5285
92.65,21.2176
92.66,20.9132
92.67,20.6152
92.68,20.3235
92.69,20.0378
92.7,19.758
92.71,19.484
92.72,19.2155
92.73,18.9525
92.74,18.6947
92.75,18.4421
92.76,18.1945
92.77,17.9518
92.78,17.7139
92.79,17.4806
92.8,17.2518
92.81,17.0274
92.82,16.8073
92.83,16.5914
92.84,16.3796
92.85,16.1718
92.86,15.9678
92.87,15.7676
92.88,15.5712
92.89,15.3783
92.9,15.189
92.91,15.0031
92.92,14.8205
92.93,14.6413
92.94,14.4652
92.95,14.2922
92.96,14.1224
92.97,13.9554
92.98,13.7914
92.99,13.6303
93,13.4719
93.01,13.3162
93.02,13.1632
93.03,13.0128
93.04,12.8649
93.05,12.7195
93.06,12.5766
93.07,12.436
93.08,12.2977
93.09,12.1617
93.1,12.028
93.11,11.8964
93.12,11.7669
93.13,11.6395
93.14,11.5142
93.15,11.3908
93.16,11.2695
93.17,11.15
93.18,11.0324
93.19,10.9166
93.2,10.8026
93.21,10.6904
93.22,10.58
93.23,10.4712
93.24,10.364
93.25,10.2585
93.26,10.1546
93.27,10.0523
93.28,9.95143
93.29,9.8521
93.3,9.75423
93.31,9.65781
93.32,9.5628
93.33,9.46918
93.34,9.37691
93.35,9.28598
93.36,9.19636
93.37,9.10801
93.38,9.02093
93.39,8.93508
93.4,8.85044
93.41,8.76699
93.42,8.68471
93.43,8.60358
93.44,8.52357
93.45,8.44466
93.46,8.36684
93.47,8.29008
93.48,8.21437
93.49,8.13968
93.5,8.066
93.51,7.99331
93.52,7.92159
93.53,7.85083
93.54,7.78101
93.55,7.71211
93.56,7.64411
93.57,7.57701
93.58,7.51078
93.59,7.44541
93.6,7.38089
93.61,7.31719
93.62,7.25431
93.63,7.19224
93.64,7.13095
93.65,7.07044
93.66,7.0107
93.67,6.9517
93.68,6.89344
93.69,6.83591
93.7,6.77909
93.71,6.72297
93.72,6.66755
93.73,6.6128
93.74,6.55872
93.75,6.5053
93.76,6.45253
93.77,6.40039
93.78,6.34888
93.79,6.29798
93.8,6.24769
93.81,6.198
93.82,6.1489
93.83,6.10037
93.84,6.05242
93.85,6.00502
93.86,5.95818
93.87,5.91188
93.88,5.86612
93.89,5.82088
93.9,5.77617
93.91,5.73196
93.92,5.68826
93.93,5.64505
93.94,5.60233
93.95,5.5601
93.96,5.51833
93.97,5.47704
93.98,5.4362
93.99,5.39582
94,5.35588
94.01,5.31638
94.02,5.27732
94.03,5.23868
94.04,5.20047
94.05,5.16267
94.06,5.12528
94.07,5.08829
94.08,5.0517
94.09,5.01551
94.1,4.97969
94.11,4.94426
94.12,4.90921
94.13,4.87452
94.14,4.8402
94.15,4.80624
94.16,4.77264
94.17,4.73938
94.18,4.70647
94.19,4.6739
94.2,4.64167
94.21,4.60976
94.22,4.57819
94.23,4.54693
94.24,4.516
94.25,4.48538
94.26,4.45506
94.27,4.42505
94.28,4.39535
94.29,4.36594
94.3,4.33682
94.31,4.308
94.32,4.27946
94.33,4.2512
94.34,4.22321
94.35,4.19551
94.36,4.16807
94.37,4.1409
94.38,4.114
94.39,4.08736
94.4,4.06097
94.41,4.03484
94.42,4.00895
94.43,3.98332
94.44,3.95793
94.45,3.93278
94.46,3.90787
94.47,3.8832
94.48,3.85875
94.49,3.83454
94.5,3.81055
94.51,3.78679
94.52,3.76325
94.53,3.73992
94.54,3.71682
94.55,3.69392
94.56,3.67123
94.57,3.64876
94.58,3.62649
94.59,3.60442
94.6,3.58255
94.61,3.56088
94.62,3.5394
94.63,3.51812
94.64,3.49703
94.65,3.47612
94.66,3.45541
94.67,3.43488
94.68,3.41453
94.69,3.39436
94.7,3.37436
94.71,3.35455
94.72,3.3349
94.73,3.31543
94.74,3.29613
94.75,3.27699
94.76,3.25803
94.77,3.23922
94.78,3.22058
94.79,3.2021
94.8,3.18377
94.81,3.1656
94.82,3.14759
94.83,3.12973
94.84,3.11202
94.85,3.09446
94.86,3.07705
94.87,3.05978
94.88,3.04266
94.89,3.02569
94.9,3.00885
94.91,2.99215
94.92,2.97559
94.93,2.95917
94.94,2.94289
94.95,2.92673
94.96,2.91071
94.97,2.89482
94.98,2.87906
94.99,2.86343
95,2.84793
95.01,2.83255
95.02,2.81729
95.03,2.80216
95.04,2.78715
95.05,2.77226
95.06,2.75748
95.07,2.74283
95.08,2.72829
95.09,2.71387
95.1,2.69956
95.11,2.68536
95.12,2.67127
95.13,2.6573
95.14,2.64343
95.15,2.62967
95.16,2.61602
95.17,2.60247
95.18,2.58903
95.19,2.5757
95.2,2.56246
95.21,2.54933
95.22,2.5363
95.23,2.52336
95.24,2.51053
95.25,2.49779
95.26,2.48515
95.27,2.47261
95.28,2.46016
95.29,2.4478
95.3,2.43554
95.31,2.42336
95.32,2.41128
95.33,2.39929
95.34,2.38739
95.35,2.37557
95.36,2.36385
95.37,2.35221
95.38,2.34065
95.39,2.32918
95.4,2.3178
95.41,2.30649
95.42,2.29527
95.43,2.28413
95.44,2.27308
95.45,2.2621
95.46,2.2512
95.47,2.24038
95.48,2.22963
95.49,2.21897
95.5,2.20838
95.51,2.19786
95.52,2.18743
95.53,2.17706
95.54,2.16677
95.55,2.15655
95.56,2.1464
95.57,2.13633
95.58,2.12632
95.59,2.11639
95.6,2.10652
95.61,2.09672
95.62,2.08699
95.63,2.07733
95.64,2.06774
95.65,2.05821
95.66,2.04875
95.67,2.03935
95.68,2.03001
95.69,2.02074
95.7,2.01154
95.71,2.00239
95.72,1.99331
95.73,1.98429
95.74,1.97533
95.75,1.96644
95.76,1.9576
95.77,1.94882
95.78,1.9401
95.79,1.93143
95.8,1.92283
95.81,1.91428
95.82,1.90579
95.83,1.89736
95.84,1.88898
95.85,1.88066
95.86,1.87239
95.87,1.86418
95.88,1.85602
95.89,1.84791
95.9,1.83986
95.91,1.83186
95.92,1.82391
95.93,1.81601
95.94,1.80816
95.95,1.80037
95.96,1.79262
95.97,1.78493
95.98,1.77728
95.99,1.76968
96,1.76213
96.01,1.75463
96.02,1.74718
96.03,1.73977
96.04,1.73241
96.05,1.7251
96.06,1.71784
96.07,1.71062
96.08,1.70344
96.09,1.69631
96.1,1.68923
96.11,1.68219
96.12,1.67519
96.13,1.66823
96.14,1.66132
96.15,1.65446
96.16,1.64763
96.17,1.64085
96.18,1.63411
96.19,1.62741
96.2,1.62075
96.21,1.61413
96.22,1.60755
96.23,1.60101
96.24,1.59452
96.25,1.58806
96.26,1.58164
96.27,1.57526
96.28,1.56892
96.29,1.56261
96.3,1.55635
96.31,1.55012
96.32,1.54393
96.33,1.53777
96.34,1.53165
96.35,1.52557
96.36,1.51953
96.37,1.51352
96.38,1.50754
96.39,1.50161
96.4,1.4957
96.41,1.48983
96.42,1.484
96.43,1.4782
96.44,1.47243
96.45,1.4667
96.46,1.461
96.47,1.45534
96.48,1.4497
96.49,1.4441
96.5,1.43853
96.51,1.433
96.52,1.42749
96.53,1.42202
96.54,1.41658
96.55,1.41117
96.56,1.40579
96.57,1.40044
96.58,1.39512
96.59,1.38983
96.6,1.38458
96.61,1.37935
96.62,1.37415
96.63,1.36898
96.64,1.36384
96.65,1.35873
96.66,1.35365
96.67,1.34859
96.68,1.34357
96.69,1.33857
96.7,1.3336
96.71,1.32865
96.72,1.32374
96.73,1.31885
96.74,1.31399
96.75,1.30916
96.76,1.30435
96.77,1.29957
96.78,1.29481
96.79,1.29008
96.8,1.28538
96.81,1.2807
96.82,1.27605
96.83,1.27142
96.84,1.26682
96.85,1.26224
96.86,1.25769
96.87,1.25317
96.88,1.24866
96.89,1.24418
96.9,1.23973
96.91,1.2353
96.92,1.23089
96.93,1.22651
96.94,1.22215
96.95,1.21781
96.96,1.21349
96.97,1.2092
96.98,1.20493
96.99,1.20069
97,1.19646
97.01,1.19226
97.02,1.18808
97.03,1.18393
97.04,1.17979
97.05,1.17568
97.06,1.17158
97.07,1.16751
97.08,1.16346
97.09,1.15943
97.1,1.15542
97.11,1.15144
97.12,1.14747
97.13,1.14352
97.14,1.1396
97.15,1.13569
97.16,1.13181
97.17,1.12794
97.18,1.12409
97.19,1.12027
97.2,1.11646
97.21,1.11267
97.22,1.1089
97.23,1.10515
97.24,1.10142
97.25,1.09771
97.26,1.09402
97.27,1.09034
97.28,1.08669
97.29,1.08305
97.3,1.07943
97.31,1.07583
97.32,1.07225
97.33,1.06868
97.34,1.06513
97.35,1.0616
97.36,1.05809
97.37,1.05459
97.38,1.05112
97.39,1.04766
97.4,1.04421
97.41,1.04079
97.42,1.03738
97.43,1.03398
97.44,1.03061
97.45,1.02725
97.46,1.0239
97.47,1.02057
97.48,1.01726
97.49,1.01397
97.5,1.01069
97.51,1.00743
97.52,1.00418
97.53,1.00095
97.54,0.99773
97.55,0.994529
97.56,0.991344
97.57,0.988174
97.58,0.985018
97.59,0.981879
97.6,0.978754
97.61,0.975643
97.62,0.972548
97.63,0.969467
97.64,0.966401
97.65,0.96335
97.66,0.960313
97.67,0.95729
97.68,0.954282
97.69,0.951287
97.7,0.948307
97.71,0.945341
97.72,0.942388
97.73,0.939449
97.74,0.936525
97.75,0.933613
97.76,0.930716
97.77,0.927831
97.78,0.92496
97.79,0.922103
97.8,0.919258
97.81,0.916427
97.82,0.913609
97.83,0.910804
97.84,0.908011
97.85,0.905232
97.86,0.902465
97.87,0.899711
97.88,0.896969
97.89,0.89424
97.9,0.891523
97.91,0.888819
97.92,0.886127
97.93,0.883447
97.94,0.88078
97.95,0.878124
97.96,0.87548
97.97,0.872849
97.98,0.870229
97.99,0.867621
98,0.865024
98.01,0.862439
98.02,0.859866
98.03,0.857304
98.04,0.854754
98.05,0.852215
98.06,0.849688
98.07,0.847171
98.08,0.844666
98.09,0.842172
98.1,0.839688
98.11,0.837216
98.12,0.834755
98.13,0.832304
98.14,0.829865
98.15,0.827436
98.16,0.825017
98.17,0.82261
98.18,0.820212
98.19,0.817826
98.2,0.815449
98.21,0.813083
98.22,0.810727
98.23,0.808382
98.24,0.806046
98.25,0.803721
98.26,0.801406
98.27,0.7991
98.28,0.796805
98.29,0.794519
98.3,0.792244
98.31,0.789978
98.32,0.787722
98.33,0.785475
98.34,0.783238
98.35,0.781011
98.36,0.778793
98.37,0.776584
98.38,0.774385
98.39,0.772195
98.4,0.770015
98.41,0.767843
98.42,0.765681
98.43,0.763528
98.44,0.761384
98.45,0.759249
98.46,0.757123
98.47,0.755006
98.48,0.752898
98.49,0.750798
98.5,0.748707
98.51,0.746626
98.52,0.744552
98.53,0.742488
98.54,0.740431
98.55,0.738384
98.56,0.736345
98.57,0.734314
98.58,0.732292
98.59,0.730278
98.6,0.728272
98.61,0.726275
98.62,0.724286
98.63,0.722305
98.64,0.720332
98.65,0.718367
98.66,0.71641
98.67,0.714461
98.68,0.71252
98.69,0.710587
98.7,0.708662
98.71,0.706745
98.72,0.704835
98.73,0.702933
98.74,0.701039
98.75,0.699152
98.76,0.697273
98.77,0.695402
98.78,0.693538
98.79,0.691682
98.8,0.689833
98.81,0.687991
98.82,0.686157
98.83,0.68433
98.84,0.682511
98.85,0.680698
98.86,0.678893
98.87,0.677095
98.88,0.675304
98.89,0.67352
98.9,0.671744
98.91,0.669974
98.92,0.668211
98.93,0.666456
98.94,0.664707
98.95,0.662965
98.96,0.66123
98.97,0.659501
98.98,0.65778
98.99,0.656065
99,0.654357
99.01,0.652655
99.02,0.65096
99.03,0.649272
99.04,0.64759
99.05,0.645915
99.06,0.644247
99.07,0.642584
99.08,0.640928
99.09,0.639279
99.1,0.637636
99.11,0.635999
99.12,0.634369
99.13,0.632745
99.14,0.631127
99.15,0.629515
99.16,0.627909
99.17,0.62631
99.18,0.624716
99.19,0.623129
99.2,0.621548
99.21,0.619972
99.22,0.618403
99.23,0.61684
99.24,0.615282
99.25,0.613731
99.26,0.612185
99.27,0.610645
99.28,0.609111
99.29,0.607583
99.3,0.60606
99.31,0.604543
99.32,0.603032
99.33,0.601527
99.34,0.600027
99.35,0.598533
99.36,0.597044
99.37,0.595561
99.38,0.594083
99.39,0.592611
99.4,0.591144
99.41,0.589683
99.42,0.588227
99.43,0.586777
99.44,0.585332
99.45,0.583892
99.46,0.582458
99.47,0.581029
99.48,0.579605
99.49,0.578186
99.5,0.576772
99.51,0.575364
99.52,0.573961
99.53,0.572563
99.54,0.57117
99.55,0.569782
99.56,0.568399
99.57,0.567021
99.58,0.565649
99.59,0.564281
99.6,0.562918
99.61,0.56156
99.62,0.560207
99.63,0.558859
99.64,0.557515
99.65,0.556177
99.66,0.554843
99.67,0.553515
99.68,0.55219
99.69,0.550871
99.7,0.549556
99.71,0.548247
99.72,0.546941
99.73,0.545641
99.74,0.544345
99.75,0.543053
99.76,0.541767
99.77,0.540484
99.78,0.539207
99.79,0.537934
99.8,0.536665
99.81,0.535401
99.82,0.534141
99.83,0.532886
99.84,0.531635
99.85,0.530389
99.86,0.529147
99.87,0.527909
99.88,0.526676
99.89,0.525446
99.9,0.524222
99.91,0.523001
99.92,0.521785
99.93,0.520573
99.94,0.519365
99.95,0.518162
99.96,0.516962
99.97,0.515767
99.98,0.514576
99.99,0.513389