File: boron_diamond/wang_2006/tc8.3/xrd/curve_2_fit.dat
88.0,0.0
88.01,0.0
88.02,0.0
88.03,0.0
88.04,0.0
88.05,0.0
88.06,0.0
88.07,0.0
88.08,0.0
88.09,0.0
88.1,0.0
88.11,0.0
88.12,0.0
88.13,0.0
88.14,0.0
88.15,0.0
88.16,0.0
88.17,0.0
88.18,0.0
88.19,0.0
88.2,0.0
88.21,0.0
88.22,0.0
88.23,0.0
88.24,0.0
88.25,0.0
88.26,0.0
88.27,0.0
88.28,0.0
88.29,0.0
88.3,0.0
88.31,0.0
88.32,0.0
88.33,0.0
88.34,0.0
88.35,0.0
88.36,0.0
88.37,0.0
88.38,0.0
88.39,0.0
88.4,0.0
88.41,0.0
88.42,0.0
88.43,0.0
88.44,0.0
88.45,0.0
88.46,0.0
88.47,0.0
88.48,0.0
88.49,0.0
88.5,0.0
88.51,0.0
88.52,0.0
88.53,0.0
88.54,0.0
88.55,0.0
88.56,0.0
88.57,0.0
88.58,0.0
88.59,0.0
88.6,0.0
88.61,0.0
88.62,0.0
88.63,0.0
88.64,0.0
88.65,0.0
88.66,0.0
88.67,0.0
88.68,0.0
88.69,0.0
88.7,0.0
88.71,0.0
88.72,0.0
88.73,0.0
88.74,0.0
88.75,0.0
88.76,0.0
88.77,0.0
88.78,0.0
88.79,0.0
88.8,0.0
88.81,0.0
88.82,0.0
88.83,0.0
88.84,0.0
88.85,0.0
88.86,0.0
88.87,0.0
88.88,0.0
88.89,0.0
88.9,0.0
88.91,0.0
88.92,0.0
88.93,0.0
88.94,0.0
88.95,0.0
88.96,0.0
88.97,0.0
88.98,0.0
88.99,0.0
89,0.0
89.01,0.0
89.02,0.0
89.03,0.0
89.04,0.0
89.05,0.0
89.06,0.0
89.07,0.0
89.08,0.0
89.09,0.0
89.1,0.0
89.11,0.0
89.12,0.0
89.13,0.0
89.14,0.0
89.15,0.0
89.16,0.0
89.17,0.0
89.18,0.0
89.19,0.0
89.2,0.0
89.21,0.0
89.22,0.0
89.23,0.0
89.24,0.0
89.25,0.0
89.26,0.0
89.27,0.0
89.28,0.0
89.29,0.0
89.3,0.0
89.31,0.0
89.32,0.0
89.33,0.0
89.34,0.0
89.35,0.0
89.36,0.0
89.37,0.0
89.38,0.0
89.39,0.0
89.4,0.0
89.41,0.0
89.42,0.0
89.43,0.0
89.44,0.0
89.45,0.0
89.46,0.0
89.47,0.0
89.48,0.0
89.49,0.0
89.5,0.0
89.51,0.0
89.52,0.0
89.53,0.0
89.54,0.0
89.55,0.0
89.56,0.0
89.57,0.0
89.58,0.0
89.59,0.0
89.6,0.0
89.61,0.0
89.62,0.0
89.63,0.0
89.64,0.0
89.65,0.0
89.66,0.0
89.67,0.0
89.68,0.0
89.69,0.0
89.7,0.0
89.71,0.0
89.72,0.0
89.73,0.0
89.74,0.0
89.75,0.0
89.76,0.0
89.77,0.0
89.78,0.0
89.79,0.0
89.8,0.0
89.81,0.0
89.82,0.0
89.83,0.0
89.84,0.0
89.85,0.0
89.86,0.0
89.87,0.0
89.88,0.0
89.89,0.0
89.9,0.0
89.91,0.0
89.92,0.0
89.93,0.0
89.94,0.0
89.95,0.0
89.96,0.0
89.97,0.0
89.98,0.0
89.99,0.0
90,0.0
90.01,0.0
90.02,0.0
90.03,0.0
90.04,0.0
90.05,0.0
90.06,0.0
90.07,0.0
90.08,0.0
90.09,0.0
90.1,0.0
90.11,0.0
90.12,0.0
90.13,0.0
90.14,0.0
90.15,0.0
90.16,0.0
90.17,0.0
90.18,0.0
90.19,0.0
90.2,0.0
90.21,0.0
90.22,0.0
90.23,0.0
90.24,0.0
90.25,0.0
90.26,0.0
90.27,0.0
90.28,0.0
90.29,0.0
90.3,0.0
90.31,0.0
90.32,0.0
90.33,0.0
90.34,0.0
90.35,0.0
90.36,0.0
90.37,0.0
90.38,0.0
90.39,0.0
90.4,0.0
90.41,0.0
90.42,0.0
90.43,0.0
90.44,0.0
90.45,0.0
90.46,0.0
90.47,0.0
90.48,0.0
90.49,0.0
90.5,0.0
90.51,0.0
90.52,0.0
90.53,0.0
90.54,0.0
90.55,0.0
90.56,0.0
90.57,0.0
90.58,0.0
90.59,0.0
90.6,0.0
90.61,0.0
90.62,0.0
90.63,0.0
90.64,0.0
90.65,0.0
90.66,0.0
90.67,0.0
90.68,0.0
90.69,0.0
90.7,0.0
90.71,0.0
90.72,0.0
90.73,0.0
90.74,0.0
90.75,0.0
90.76,0.0
90.77,0.0
90.78,0.0
90.79,0.0
90.8,0.0
90.81,0.0
90.82,0.0
90.83,0.0
90.84,0.0
90.85,0.0
90.86,0.0
90.87,0.0
90.88,0.0
90.89,0.0
90.9,0.0
90.91,0.0
90.92,0.0
90.93,0.0
90.94,0.0
90.95,0.0
90.96,0.0
90.97,0.0
90.98,0.0
90.99,0.0
91,0.0
91.01,0.0
91.02,0.0
91.03,0.0
91.04,0.0
91.05,0.0
91.06,0.0
91.07,0.0
91.08,0.0
91.09,0.0
91.1,0.0
91.11,0.0
91.12,0.0
91.13,0.0
91.14,0.0
91.15,0.0
91.16,0.0
91.17,0.0
91.18,0.0
91.19,0.0
91.2,0.0
91.21,0.0
91.22,0.0
91.23,0.0
91.24,0.0
91.25,0.0
91.26,0.0
91.27,0.0
91.28,0.0
91.29,0.0
91.3,0.0
91.31,0.0
91.32,0.0
91.33,0.0
91.34,0.0
91.35,0.0
91.36,0.0
91.37,0.0
91.38,0.0
91.39,0.0
91.4,0.0
91.41,0.0
91.42,0.0
91.43,0.0
91.44,0.0
91.45,0.0
91.46,0.0
91.47,0.0
91.48,0.0
91.49,0.0
91.5,0.0
91.51,0.0
91.52,0.0
91.53,0.0
91.54,0.0
91.55,0.0
91.56,0.0
91.57,0.0
91.58,0.0
91.59,0.0
91.6,0.0
91.61,0.0
91.62,0.0
91.63,0.0
91.64,0.0
91.65,0.0
91.66,0.0
91.67,0.0
91.68,0.0
91.69,0.0
91.7,0.0
91.71,0.0
91.72,0.0
91.73,0.0
91.74,0.0
91.75,0.0
91.76,0.0
91.77,0.0
91.78,0.0
91.79,0.0
91.8,0.0
91.81,0.0
91.82,0.0
91.83,0.0
91.84,0.0
91.85,0.0
91.86,0.0
91.87,0.0
91.88,0.0
91.89,0.0
91.9,0.0
91.91,0.0
91.92,0.0
91.93,0.0
91.94,0.0
91.95,0.0
91.96,0.0
91.97,0.0
91.98,0.0
91.99,0.0
92,0.0
92.01,0.0
92.02,0.0
92.03,0.0
92.04,0.0
92.05,0.0
92.06,0.0
92.07,0.0
92.08,0.0
92.09,0.0
92.1,0.0
92.11,0.0
92.12,0.0
92.13,0.0
92.14,0.0
92.15,0.0
92.16,0.0
92.17,0.0
92.18,0.0
92.19,0.0
92.2,0.0
92.21,0.0
92.22,0.0
92.23,0.0
92.24,0.0
92.25,0.0
92.26,0.0
92.27,0.0
92.28,0.0
92.29,0.0
92.3,0.0
92.31,0.0
92.32,0.0
92.33,0.0
92.34,0.0
92.35,0.0
92.36,0.0
92.37,0.0
92.38,0.0
92.39,0.0
92.4,0.0
92.41,0.0
92.42,0.0
92.43,0.0
92.44,0.0
92.45,0.0
92.46,0.0
92.47,0.0
92.48,0.0
92.49,0.0
92.5,0.0
92.51,0.0
92.52,0.0
92.53,0.0
92.54,0.0
92.55,0.0
92.56,0.0
92.57,0.0
92.58,0.0
92.59,0.0
92.6,0.0
92.61,0.0
92.62,0.0
92.63,0.0
92.64,0.0
92.65,0.0
92.66,0.0
92.67,0.0
92.68,0.0
92.69,0.0
92.7,0.0
92.71,0.0
92.72,0.0
92.73,0.0
92.74,0.0
92.75,0.0
92.76,0.0
92.77,0.0
92.78,0.0
92.79,0.0
92.8,0.0
92.81,0.0
92.82,0.0
92.83,0.0
92.84,0.0
92.85,0.0
92.86,0.0
92.87,0.0
92.88,0.0
92.89,0.0
92.9,0.0
92.91,0.0
92.92,0.0
92.93,0.0
92.94,0.0
92.95,0.0
92.96,0.0
92.97,0.0
92.98,0.0
92.99,0.0
93,0.0
93.01,0.0
93.02,0.0
93.03,0.0
93.04,0.0
93.05,0.0
93.06,0.0
93.07,0.0
93.08,0.0
93.09,0.0
93.1,0.0
93.11,0.0
93.12,0.0
93.13,0.0
93.14,0.0
93.15,0.0
93.16,0.0
93.17,0.0
93.18,0.0
93.19,0.0
93.2,0.0
93.21,0.0
93.22,0.0
93.23,0.0
93.24,0.0
93.25,0.0
93.26,0.0
93.27,0.0
93.28,0.0
93.29,0.0
93.3,0.0
93.31,0.0
93.32,0.0
93.33,0.0
93.34,0.0
93.35,0.0
93.36,0.0
93.37,0.0
93.38,0.0
93.39,0.0
93.4,0.0
93.41,0.0
93.42,0.0
93.43,0.0
93.44,0.0
93.45,0.0
93.46,0.0
93.47,0.0
93.48,0.0
93.49,0.0
93.5,0.0
93.51,0.0
93.52,0.0
93.53,0.0
93.54,0.0
93.55,0.0
93.56,0.0
93.57,0.0
93.58,0.0
93.59,0.0
93.6,0.0
93.61,0.0
93.62,0.0
93.63,0.0
93.64,0.0
93.65,0.0
93.66,0.0
93.67,0.0
93.68,0.0
93.69,0.0
93.7,0.0
93.71,0.0
93.72,0.0
93.73,0.0
93.74,0.0
93.75,0.0
93.76,0.0
93.77,0.0
93.78,0.0
93.79,0.0
93.8,0.0
93.81,0.0
93.82,0.0
93.83,0.0
93.84,0.0
93.85,0.0
93.86,0.0
93.87,0.0
93.88,0.0
93.89,0.0
93.9,0.0
93.91,0.0
93.92,0.0
93.93,0.0
93.94,0.0
93.95,0.0
93.96,0.0
93.97,0.0
93.98,0.0
93.99,0.0
94,0.0
94.01,0.0
94.02,0.0
94.03,0.0
94.04,0.0
94.05,0.0
94.06,0.0
94.07,0.0
94.08,0.0
94.09,0.0
94.1,0.0
94.11,0.0
94.12,0.0
94.13,0.0
94.14,0.0
94.15,0.0
94.16,0.0
94.17,0.0
94.18,0.0
94.19,0.0
94.2,0.0
94.21,0.0
94.22,0.0
94.23,0.0
94.24,0.0
94.25,0.0
94.26,0.0
94.27,0.0
94.28,0.0
94.29,0.0
94.3,0.0
94.31,0.0
94.32,0.0
94.33,0.0
94.34,0.0
94.35,0.0
94.36,0.0
94.37,0.0
94.38,0.0
94.39,0.0
94.4,0.0
94.41,0.0
94.42,0.0
94.43,0.0
94.44,0.0
94.45,0.0
94.46,0.0
94.47,0.0
94.48,0.0
94.49,6e-323
94.5,5.78e-321
94.51,5.6174e-319
94.52,5.38093e-317
94.53,5.08135e-315
94.54,4.73042e-313
94.55,4.34129e-311
94.56,3.92768e-309
94.57,3.5031e-307
94.58,3.08012e-305
94.59,2.66982e-303
94.6,2.28136e-301
94.61,1.92178e-299
94.62,1.59593e-297
94.63,1.30654e-295
94.64,1.05446e-293
94.65,8.38949e-292
94.66,6.58021e-290
94.67,5.08795e-288
94.68,3.87833e-286
94.69,2.91437e-284
94.7,2.15896e-282
94.71,1.57667e-280
94.72,1.13511e-278
94.73,8.05626e-277
94.74,5.63673e-275
94.75,3.88794e-273
94.76,2.64369e-271
94.77,1.77215e-269
94.78,1.17109e-267
94.79,7.62916e-266
94.8,4.89962e-264
94.81,3.10204e-262
94.82,1.93611e-260
94.83,1.19128e-258
94.84,7.22591e-257
94.85,4.32088e-255
94.86,2.54712e-253
94.87,1.48022e-251
94.88,8.48011e-250
94.89,4.78934e-248
94.9,2.66654e-246
94.91,1.46359e-244
94.92,7.91935e-243
94.93,4.22433e-241
94.94,2.22139e-239
94.95,1.15157e-237
94.96,5.88513e-236
94.97,2.96497e-234
94.98,1.47259e-232
94.99,7.21012e-231
95,3.48018e-229
95.01,1.656e-227
95.02,7.76813e-226
95.03,3.5923e-224
95.04,1.63767e-222
95.05,7.36002e-221
95.06,3.26085e-219
95.07,1.42423e-217
95.08,6.13238e-216
95.09,2.60302e-214
95.1,1.08924e-212
95.11,4.49332e-211
95.12,1.82731e-209
95.13,7.32577e-208
95.14,2.8953e-206
95.15,1.12806e-204
95.16,4.33283e-203
95.17,1.64062e-201
95.18,6.12413e-200
95.19,2.25361e-198
95.2,8.17545e-197
95.21,2.92377e-195
95.22,1.0308e-193
95.23,3.58263e-192
95.24,1.22752e-190
95.25,4.14626e-189
95.26,1.38064e-187
95.27,4.53216e-186
95.28,1.46665e-184
95.29,4.67895e-183
95.3,1.47153e-181
95.31,4.56233e-180
95.32,1.39445e-178
95.33,4.20164e-177
95.34,1.24805e-175
95.35,3.65466e-174
95.36,1.05501e-172
95.37,3.0024e-171
95.38,8.42321e-170
95.39,2.32962e-168
95.4,6.35173e-167
95.41,1.70725e-165
95.42,4.52377e-164
95.43,1.18169e-162
95.44,3.04302e-161
95.45,7.72511e-160
95.46,1.93332e-158
95.47,4.7698e-157
95.48,1.1601e-155
95.49,2.78157e-154
95.5,6.57482e-153
95.51,1.53206e-151
95.52,3.51938e-150
95.53,7.96995e-149
95.54,1.77928e-147
95.55,3.91588e-146
95.56,8.49601e-145
95.57,1.81718e-143
95.58,3.83161e-142
95.59,7.96458e-141
95.6,1.63209e-139
95.61,3.29702e-138
95.62,6.56597e-137
95.63,1.28907e-135
95.64,2.49488e-134
95.65,4.76018e-133
95.66,8.95354e-132
95.67,1.66022e-130
95.68,3.03483e-129
95.69,5.46894e-128
95.7,9.71561e-127
95.71,1.70151e-125
95.72,2.93765e-124
95.73,4.99991e-123
95.74,8.38926e-122
95.75,1.38766e-120
95.76,2.26278e-119
95.77,3.63747e-118
95.78,5.76443e-117
95.79,9.00556e-116
95.8,1.38696e-114
95.81,2.1058e-113
95.82,3.15186e-112
95.83,4.65068e-111
95.84,6.76496e-110
95.85,9.7009e-109
95.86,1.37138e-107
95.87,1.91118e-106
95.88,2.6257e-105
95.89,3.5562e-104
95.9,4.74817e-103
95.91,6.24979e-102
95.92,8.10967e-101
95.93,1.03738e-99
95.94,1.3082e-98
95.95,1.62633e-97
95.96,1.99315e-96
95.97,2.40808e-95
95.98,2.86814e-94
95.99,3.36767e-93
96,3.89813e-92
96.01,4.44818e-91
96.02,5.00387e-90
96.03,5.54919e-89
96.04,6.06668e-88
96.05,6.5384e-87
96.06,6.94689e-86
96.07,7.27626e-85
96.08,7.5132e-84
96.09,7.64786e-83
96.1,7.67456e-82
96.11,7.59217e-81
96.12,7.40419e-80
96.13,7.11848e-79
96.14,6.74676e-78
96.15,6.3038e-77
96.16,5.80642e-76
96.17,5.27246e-75
96.18,4.71972e-74
96.19,4.16503e-73
96.2,3.62342e-72
96.21,3.10755e-71
96.22,2.62734e-70
96.23,2.18984e-69
96.24,1.79932e-68
96.25,1.45748e-67
96.26,1.16384e-66
96.27,9.1619e-66
96.28,7.1101e-65
96.29,5.43956e-64
96.3,4.10253e-63
96.31,3.05026e-62
96.32,2.23574e-61
96.33,1.61549e-60
96.34,1.15077e-59
96.35,8.08105e-59
96.36,5.59432e-58
96.37,3.81791e-57
96.38,2.56863e-56
96.39,1.70364e-55
96.4,1.11391e-54
96.41,7.18e-54
96.42,4.56243e-53
96.43,2.85802e-52
96.44,1.76496e-51
96.45,1.07449e-50
96.46,6.44864e-50
96.47,3.81534e-49
96.48,2.22534e-48
96.49,1.27955e-47
96.5,7.25303e-47
96.51,4.05302e-46
96.52,2.23274e-45
96.53,1.21253e-44
96.54,6.49157e-44
96.55,3.42613e-43
96.56,1.78261e-42
96.57,9.14341e-42
96.58,4.62337e-41
96.59,2.30466e-40
96.6,1.13254e-39
96.61,5.48658e-39
96.62,2.62027e-38
96.63,1.23364e-37
96.64,5.72575e-37
96.65,2.61983e-36
96.66,1.18172e-35
96.67,5.25474e-35
96.68,2.3035e-34
96.69,9.9546e-34
96.7,4.2409e-33
96.71,1.78111e-32
96.72,7.37434e-32
96.73,3.00991e-31
96.74,1.21111e-30
96.75,4.80408e-30
96.76,1.87861e-29
96.77,7.24205e-29
96.78,2.75223e-28
96.79,1.03112e-27
96.8,3.80828e-27
96.81,1.38659e-26
96.82,4.977e-26
96.83,1.7611e-25
96.84,6.14328e-25
96.85,2.11259e-24
96.86,7.16189e-24
96.87,2.39354e-23
96.88,7.88588e-23
96.89,2.56129e-22
96.9,8.20101e-22
96.91,2.58865e-21
96.92,8.05525e-21
96.93,2.47106e-20
96.94,7.47284e-20
96.95,2.22786e-19
96.96,6.54767e-19
96.97,1.89708e-18
96.98,5.41855e-18
96.99,1.52573e-17
97,4.2352e-17
97.01,1.15896e-16
97.02,3.1265e-16
97.03,8.31475e-16
97.04,2.17991e-15
97.05,5.63413e-15
97.06,1.43553e-14
97.07,3.60578e-14
97.08,8.92859e-14
97.09,2.17954e-13
97.1,5.24502e-13
97.11,1.24431e-12
97.12,2.91009e-12
97.13,6.7094e-12
97.14,1.52496e-11
97.15,3.41692e-11
97.16,7.54758e-11
97.17,1.64354e-10
97.18,3.52818e-10
97.19,7.46655e-10
97.2,1.55772e-09
97.21,3.20373e-09
97.22,6.49562e-09
97.23,1.29833e-08
97.24,2.55828e-08
97.25,4.96946e-08
97.26,9.51633e-08
97.27,1.79651e-07
97.28,3.34338e-07
97.29,6.13398e-07
97.3,1.10942e-06
97.31,1.97811e-06
97.32,3.47699e-06
97.33,6.02496e-06
97.34,1.02921e-05
97.35,1.73321e-05
97.36,2.87739e-05
97.37,4.70917e-05
97.38,7.59782e-05
97.39,0.000120846
97.4,0.000189485
97.41,0.000292897
97.42,0.000446327
97.43,0.000670488
97.44,0.00099295
97.45,0.00144965
97.46,0.00208639
97.47,0.00296025
97.48,0.00414057
97.49,0.00570939
97.5,0.00776101
97.51,0.0104003
97.52,0.0137395
97.53,0.0178935
97.54,0.022973
97.55,0.0290764
97.56,0.0362795
97.57,0.0446252
97.58,0.0541126
97.59,0.0646866
97.6,0.0762307
97.61,0.0885613
97.62,0.101428
97.63,0.114516
97.64,0.127461
97.65,0.139858
97.66,0.151284
97.67,0.161324
97.68,0.169591
97.69,0.175755
97.7,0.17956
97.71,0.180846
97.72,0.17956
97.73,0.175755
97.74,0.169591
97.75,0.161324
97.76,0.151284
97.77,0.139858
97.78,0.127461
97.79,0.114516
97.8,0.101428
97.81,0.0885613
97.82,0.0762307
97.83,0.0646866
97.84,0.0541126
97.85,0.0446252
97.86,0.0362795
97.87,0.0290764
97.88,0.022973
97.89,0.0178935
97.9,0.0137395
97.91,0.0104003
97.92,0.00776101
97.93,0.00570939
97.94,0.00414057
97.95,0.00296025
97.96,0.00208639
97.97,0.00144965
97.98,0.00099295
97.99,0.000670488
98,0.000446327
98.01,0.000292897
98.02,0.000189485
98.03,0.000120846
98.04,7.59782e-05
98.05,4.70917e-05
98.06,2.87739e-05
98.07,1.73321e-05
98.08,1.02921e-05
98.09,6.02496e-06
98.1,3.47699e-06
98.11,1.97811e-06
98.12,1.10942e-06
98.13,6.13398e-07
98.14,3.34338e-07
98.15,1.79651e-07
98.16,9.51633e-08
98.17,4.96946e-08
98.18,2.55828e-08
98.19,1.29833e-08
98.2,6.49562e-09
98.21,3.20373e-09
98.22,1.55772e-09
98.23,7.46655e-10
98.24,3.52818e-10
98.25,1.64354e-10
98.26,7.54758e-11
98.27,3.41692e-11
98.28,1.52496e-11
98.29,6.7094e-12
98.3,2.91009e-12
98.31,1.24431e-12
98.32,5.24502e-13
98.33,2.17954e-13
98.34,8.92859e-14
98.35,3.60578e-14
98.36,1.43553e-14
98.37,5.63413e-15
98.38,2.17991e-15
98.39,8.31475e-16
98.4,3.1265e-16
98.41,1.15896e-16
98.42,4.2352e-17
98.43,1.52573e-17
98.44,5.41855e-18
98.45,1.89708e-18
98.46,6.54767e-19
98.47,2.22786e-19
98.48,7.47284e-20
98.49,2.47106e-20
98.5,8.05525e-21
98.51,2.58865e-21
98.52,8.20101e-22
98.53,2.56129e-22
98.54,7.88588e-23
98.55,2.39354e-23
98.56,7.16189e-24
98.57,2.11259e-24
98.58,6.14328e-25
98.59,1.7611e-25
98.6,4.977e-26
98.61,1.38659e-26
98.62,3.80828e-27
98.63,1.03112e-27
98.64,2.75223e-28
98.65,7.24205e-29
98.66,1.87861e-29
98.67,4.80408e-30
98.68,1.21111e-30
98.69,3.00991e-31
98.7,7.37434e-32
98.71,1.78111e-32
98.72,4.2409e-33
98.73,9.9546e-34
98.74,2.3035e-34
98.75,5.25474e-35
98.76,1.18172e-35
98.77,2.61983e-36
98.78,5.72575e-37
98.79,1.23364e-37
98.8,2.62027e-38
98.81,5.48658e-39
98.82,1.13254e-39
98.83,2.30466e-40
98.84,4.62337e-41
98.85,9.14341e-42
98.86,1.78261e-42
98.87,3.42613e-43
98.88,6.49157e-44
98.89,1.21253e-44
98.9,2.23274e-45
98.91,4.05302e-46
98.92,7.25303e-47
98.93,1.27955e-47
98.94,2.22534e-48
98.95,3.81534e-49
98.96,6.44864e-50
98.97,1.07449e-50
98.98,1.76496e-51
98.99,2.85802e-52
99,4.56243e-53
99.01,7.18e-54
99.02,1.11391e-54
99.03,1.70364e-55
99.04,2.56863e-56
99.05,3.81791e-57
99.06,5.59432e-58
99.07,8.08105e-59
99.08,1.15077e-59
99.09,1.61549e-60
99.1,2.23574e-61
99.11,3.05026e-62
99.12,4.10253e-63
99.13,5.43956e-64
99.14,7.1101e-65
99.15,9.1619e-66
99.16,1.16384e-66
99.17,1.45748e-67
99.18,1.79932e-68
99.19,2.18984e-69
99.2,2.62734e-70
99.21,3.10755e-71
99.22,3.62342e-72
99.23,4.16503e-73
99.24,4.71972e-74
99.25,5.27246e-75
99.26,5.80642e-76
99.27,6.3038e-77
99.28,6.74676e-78
99.29,7.11848e-79
99.3,7.40419e-80
99.31,7.59217e-81
99.32,7.67456e-82
99.33,7.64786e-83
99.34,7.5132e-84
99.35,7.27626e-85
99.36,6.94689e-86
99.37,6.5384e-87
99.38,6.06668e-88
99.39,5.54919e-89
99.4,5.00387e-90
99.41,4.44818e-91
99.42,3.89813e-92
99.43,3.36767e-93
99.44,2.86814e-94
99.45,2.40808e-95
99.46,1.99315e-96
99.47,1.62633e-97
99.48,1.3082e-98
99.49,1.03738e-99
99.5,8.10967e-101
99.51,6.24979e-102
99.52,4.74817e-103
99.53,3.5562e-104
99.54,2.6257e-105
99.55,1.91118e-106
99.56,1.37138e-107
99.57,9.7009e-109
99.58,6.76496e-110
99.59,4.65068e-111
99.6,3.15186e-112
99.61,2.1058e-113
99.62,1.38696e-114
99.63,9.00556e-116
99.64,5.76443e-117
99.65,3.63747e-118
99.66,2.26278e-119
99.67,1.38766e-120
99.68,8.38926e-122
99.69,4.99991e-123
99.7,2.93765e-124
99.71,1.70151e-125
99.72,9.7156e-127
99.73,5.46894e-128
99.74,3.03483e-129
99.75,1.66022e-130
99.76,8.95354e-132
99.77,4.76018e-133
99.78,2.49488e-134
99.79,1.28907e-135
99.8,6.56597e-137
99.81,3.29702e-138
99.82,1.63209e-139
99.83,7.96458e-141
99.84,3.83161e-142
99.85,1.81718e-143
99.86,8.49601e-145
99.87,3.91588e-146
99.88,1.77928e-147
99.89,7.96995e-149
99.9,3.51938e-150
99.91,1.53206e-151
99.92,6.57482e-153
99.93,2.78157e-154
99.94,1.1601e-155
99.95,4.7698e-157
99.96,1.93332e-158
99.97,7.72511e-160
99.98,3.04302e-161
99.99,1.18169e-162