File: boron_diamond/wang_2006/tc8.3/xrd/curve_total_fit.dat
88.0,104.437
88.01,104.458
88.02,104.479
88.03,104.5
88.04,104.521
88.05,104.542
88.06,104.564
88.07,104.585
88.08,104.607
88.09,104.629
88.1,104.652
88.11,104.674
88.12,104.697
88.13,104.72
88.14,104.743
88.15,104.766
88.16,104.79
88.17,104.814
88.18,104.838
88.19,104.862
88.2,104.886
88.21,104.911
88.22,104.936
88.23,104.961
88.24,104.986
88.25,105.012
88.26,105.038
88.27,105.064
88.28,105.091
88.29,105.117
88.3,105.144
88.31,105.171
88.32,105.199
88.33,105.227
88.34,105.255
88.35,105.283
88.36,105.312
88.37,105.34
88.38,105.37
88.39,105.399
88.4,105.429
88.41,105.459
88.42,105.489
88.43,105.52
88.44,105.551
88.45,105.582
88.46,105.614
88.47,105.646
88.48,105.678
88.49,105.711
88.5,105.743
88.51,105.777
88.52,105.81
88.53,105.844
88.54,105.879
88.55,105.914
88.56,105.949
88.57,105.984
88.58,106.02
88.59,106.056
88.6,106.093
88.61,106.13
88.62,106.167
88.63,106.205
88.64,106.243
88.65,106.282
88.66,106.321
88.67,106.361
88.68,106.401
88.69,106.441
88.7,106.482
88.71,106.523
88.72,106.565
88.73,106.608
88.74,106.65
88.75,106.694
88.76,106.737
88.77,106.782
88.78,106.826
88.79,106.872
88.8,106.918
88.81,106.964
88.82,107.011
88.83,107.058
88.84,107.106
88.85,107.155
88.86,107.204
88.87,107.254
88.88,107.304
88.89,107.355
88.9,107.407
88.91,107.459
88.92,107.512
88.93,107.565
88.94,107.62
88.95,107.674
88.96,107.73
88.97,107.786
88.98,107.843
88.99,107.901
89,107.959
89.01,108.018
89.02,108.078
89.03,108.139
89.04,108.2
89.05,108.262
89.06,108.325
89.07,108.389
89.08,108.453
89.09,108.519
89.1,108.585
89.11,108.653
89.12,108.721
89.13,108.79
89.14,108.86
89.15,108.93
89.16,109.002
89.17,109.075
89.18,109.149
89.19,109.224
89.2,109.3
89.21,109.376
89.22,109.454
89.23,109.533
89.24,109.614
89.25,109.695
89.26,109.777
89.27,109.861
89.28,109.946
89.29,110.032
89.3,110.119
89.31,110.207
89.32,110.297
89.33,110.388
89.34,110.481
89.35,110.575
89.36,110.67
89.37,110.766
89.38,110.864
89.39,110.964
89.4,111.065
89.41,111.167
89.42,111.272
89.43,111.377
89.44,111.485
89.45,111.594
89.46,111.704
89.47,111.817
89.48,111.931
89.49,112.047
89.5,112.165
89.51,112.284
89.52,112.406
89.53,112.53
89.54,112.655
89.55,112.783
89.56,112.913
89.57,113.044
89.58,113.178
89.59,113.315
89.6,113.453
89.61,113.594
89.62,113.737
89.63,113.883
89.64,114.031
89.65,114.182
89.66,114.335
89.67,114.491
89.68,114.65
89.69,114.812
89.7,114.976
89.71,115.143
89.72,115.314
89.73,115.487
89.74,115.663
89.75,115.843
89.76,116.026
89.77,116.212
89.78,116.402
89.79,116.595
89.8,116.792
89.81,116.993
89.82,117.197
89.83,117.406
89.84,117.618
89.85,117.834
89.86,118.055
89.87,118.28
89.88,118.509
89.89,118.743
89.9,118.982
89.91,119.225
89.92,119.473
89.93,119.726
89.94,119.985
89.95,120.249
89.96,120.518
89.97,120.792
89.98,121.073
89.99,121.359
90,121.652
90.01,121.951
90.02,122.256
90.03,122.568
90.04,122.886
90.05,123.212
90.06,123.544
90.07,123.885
90.08,124.232
90.09,124.588
90.1,124.952
90.11,125.324
90.12,125.704
90.13,126.094
90.14,126.492
90.15,126.9
90.16,127.318
90.17,127.745
90.18,128.183
90.19,128.631
90.2,129.091
90.21,129.561
90.22,130.044
90.23,130.538
90.24,131.045
90.25,131.564
90.26,132.097
90.27,132.644
90.28,133.204
90.29,133.78
90.3,134.37
90.31,134.976
90.32,135.599
90.33,136.238
90.34,136.895
90.35,137.569
90.36,138.262
90.37,138.975
90.38,139.707
90.39,140.46
90.4,141.235
90.41,142.032
90.42,142.852
90.43,143.696
90.44,144.565
90.45,145.46
90.46,146.381
90.47,147.331
90.48,148.309
90.49,149.317
90.5,150.357
90.51,151.429
90.52,152.535
90.53,153.677
90.54,154.855
90.55,156.071
90.56,157.326
90.57,158.623
90.58,159.963
90.59,161.348
90.6,162.78
90.61,164.261
90.62,165.792
90.63,167.377
90.64,169.017
90.65,170.715
90.66,172.473
90.67,174.294
90.68,176.181
90.69,178.137
90.7,180.165
90.71,182.269
90.72,184.45
90.73,186.714
90.74,189.064
90.75,191.504
90.76,194.038
90.77,196.67
90.78,199.406
90.79,202.249
90.8,205.204
90.81,208.278
90.82,211.475
90.83,214.802
90.84,218.263
90.85,221.865
90.86,225.616
90.87,229.52
90.88,233.586
90.89,237.82
90.9,242.23
90.91,246.823
90.92,251.607
90.93,256.589
90.94,261.778
90.95,267.182
90.96,272.808
90.97,278.664
90.98,284.758
90.99,291.097
91,297.688
91.01,304.537
91.02,311.649
91.03,319.029
91.04,326.68
91.05,334.604
91.06,342.801
91.07,351.268
91.08,360
91.09,368.991
91.1,378.228
91.11,387.697
91.12,397.379
91.13,407.25
91.14,417.281
91.15,427.436
91.16,437.676
91.17,447.952
91.18,458.212
91.19,468.394
91.2,478.433
91.21,488.255
91.22,497.782
91.23,506.933
91.24,515.62
91.25,523.758
91.26,531.257
91.27,538.033
91.28,544.004
91.29,549.095
91.3,553.24
91.31,556.383
91.32,558.48
91.33,559.501
91.34,559.434
91.35,558.277
91.36,556.049
91.37,552.779
91.38,548.513
91.39,543.309
91.4,537.234
91.41,530.363
91.42,522.78
91.43,514.57
91.44,505.82
91.45,496.618
91.46,487.05
91.47,477.197
91.48,467.136
91.49,456.941
91.5,446.676
91.51,436.401
91.52,426.17
91.53,416.028
91.54,406.015
91.55,396.166
91.56,386.509
91.57,377.068
91.58,367.861
91.59,358.902
91.6,350.202
91.61,341.768
91.62,333.605
91.63,325.715
91.64,318.098
91.65,310.751
91.66,303.672
91.67,296.855
91.68,290.296
91.69,283.988
91.7,277.924
91.71,272.097
91.72,266.499
91.73,261.122
91.74,255.959
91.75,251.002
91.76,246.242
91.77,241.672
91.78,237.285
91.79,233.072
91.8,229.027
91.81,225.142
91.82,221.41
91.83,217.826
91.84,214.381
91.85,211.071
91.86,207.89
91.87,204.831
91.88,201.89
91.89,199.06
91.9,196.338
91.91,193.718
91.92,191.196
91.93,188.768
91.94,186.429
91.95,184.175
91.96,182.003
91.97,179.91
91.98,177.891
91.99,175.943
92,174.065
92.01,172.251
92.02,170.501
92.03,168.81
92.04,167.177
92.05,165.599
92.06,164.074
92.07,162.6
92.08,161.174
92.09,159.795
92.1,158.46
92.11,157.168
92.12,155.917
92.13,154.706
92.14,153.533
92.15,152.396
92.16,151.294
92.17,150.226
92.18,149.191
92.19,148.186
92.2,147.211
92.21,146.265
92.22,145.347
92.23,144.456
92.24,143.59
92.25,142.749
92.26,141.932
92.27,141.138
92.28,140.366
92.29,139.615
92.3,138.885
92.31,138.175
92.32,137.484
92.33,136.812
92.34,136.158
92.35,135.521
92.36,134.9
92.37,134.296
92.38,133.708
92.39,133.134
92.4,132.575
92.41,132.03
92.42,131.499
92.43,130.981
92.44,130.476
92.45,129.983
92.46,129.502
92.47,129.033
92.48,128.575
92.49,128.128
92.5,127.691
92.51,127.265
92.52,126.849
92.53,126.442
92.54,126.045
92.55,125.657
92.56,125.277
92.57,124.906
92.58,124.543
92.59,124.189
92.6,123.842
92.61,123.503
92.62,123.171
92.63,122.846
92.64,122.529
92.65,122.218
92.66,121.913
92.67,121.615
92.68,121.323
92.69,121.038
92.7,120.758
92.71,120.484
92.72,120.215
92.73,119.952
92.74,119.695
92.75,119.442
92.76,119.195
92.77,118.952
92.78,118.714
92.79,118.481
92.8,118.252
92.81,118.027
92.82,117.807
92.83,117.591
92.84,117.38
92.85,117.172
92.86,116.968
92.87,116.768
92.88,116.571
92.89,116.378
92.9,116.189
92.91,116.003
92.92,115.821
92.93,115.641
92.94,115.465
92.95,115.292
92.96,115.122
92.97,114.955
92.98,114.791
92.99,114.63
93,114.472
93.01,114.316
93.02,114.163
93.03,114.013
93.04,113.865
93.05,113.72
93.06,113.577
93.07,113.436
93.08,113.298
93.09,113.162
93.1,113.028
93.11,112.896
93.12,112.767
93.13,112.64
93.14,112.514
93.15,112.391
93.16,112.269
93.17,112.15
93.18,112.032
93.19,111.917
93.2,111.803
93.21,111.69
93.22,111.58
93.23,111.471
93.24,111.364
93.25,111.259
93.26,111.155
93.27,111.052
93.28,110.951
93.29,110.852
93.3,110.754
93.31,110.658
93.32,110.563
93.33,110.469
93.34,110.377
93.35,110.286
93.36,110.196
93.37,110.108
93.38,110.021
93.39,109.935
93.4,109.85
93.41,109.767
93.42,109.685
93.43,109.604
93.44,109.524
93.45,109.445
93.46,109.367
93.47,109.29
93.48,109.214
93.49,109.14
93.5,109.066
93.51,108.993
93.52,108.922
93.53,108.851
93.54,108.781
93.55,108.712
93.56,108.644
93.57,108.577
93.58,108.511
93.59,108.445
93.6,108.381
93.61,108.317
93.62,108.254
93.63,108.192
93.64,108.131
93.65,108.07
93.66,108.011
93.67,107.952
93.68,107.893
93.69,107.836
93.7,107.779
93.71,107.723
93.72,107.668
93.73,107.613
93.74,107.559
93.75,107.505
93.76,107.453
93.77,107.4
93.78,107.349
93.79,107.298
93.8,107.248
93.81,107.198
93.82,107.149
93.83,107.1
93.84,107.052
93.85,107.005
93.86,106.958
93.87,106.912
93.88,106.866
93.89,106.821
93.9,106.776
93.91,106.732
93.92,106.688
93.93,106.645
93.94,106.602
93.95,106.56
93.96,106.518
93.97,106.477
93.98,106.436
93.99,106.396
94,106.356
94.01,106.316
94.02,106.277
94.03,106.239
94.04,106.2
94.05,106.163
94.06,106.125
94.07,106.088
94.08,106.052
94.09,106.016
94.1,105.98
94.11,105.944
94.12,105.909
94.13,105.875
94.14,105.84
94.15,105.806
94.16,105.773
94.17,105.739
94.18,105.706
94.19,105.674
94.2,105.642
94.21,105.61
94.22,105.578
94.23,105.547
94.24,105.516
94.25,105.485
94.26,105.455
94.27,105.425
94.28,105.395
94.29,105.366
94.3,105.337
94.31,105.308
94.32,105.279
94.33,105.251
94.34,105.223
94.35,105.196
94.36,105.168
94.37,105.141
94.38,105.114
94.39,105.087
94.4,105.061
94.41,105.035
94.42,105.009
94.43,104.983
94.44,104.958
94.45,104.933
94.46,104.908
94.47,104.883
94.48,104.859
94.49,104.835
94.5,104.811
94.51,104.787
94.52,104.763
94.53,104.74
94.54,104.717
94.55,104.694
94.56,104.671
94.57,104.649
94.58,104.626
94.59,104.604
94.6,104.583
94.61,104.561
94.62,104.539
94.63,104.518
94.64,104.497
94.65,104.476
94.66,104.455
94.67,104.435
94.68,104.415
94.69,104.394
94.7,104.374
94.71,104.355
94.72,104.335
94.73,104.315
94.74,104.296
94.75,104.277
94.76,104.258
94.77,104.239
94.78,104.221
94.79,104.202
94.8,104.184
94.81,104.166
94.82,104.148
94.83,104.13
94.84,104.112
94.85,104.094
94.86,104.077
94.87,104.06
94.88,104.043
94.89,104.026
94.9,104.009
94.91,103.992
94.92,103.976
94.93,103.959
94.94,103.943
94.95,103.927
94.96,103.911
94.97,103.895
94.98,103.879
94.99,103.863
95,103.848
95.01,103.833
95.02,103.817
95.03,103.802
95.04,103.787
95.05,103.772
95.06,103.757
95.07,103.743
95.08,103.728
95.09,103.714
95.1,103.7
95.11,103.685
95.12,103.671
95.13,103.657
95.14,103.643
95.15,103.63
95.16,103.616
95.17,103.602
95.18,103.589
95.19,103.576
95.2,103.562
95.21,103.549
95.22,103.536
95.23,103.523
95.24,103.511
95.25,103.498
95.26,103.485
95.27,103.473
95.28,103.46
95.29,103.448
95.3,103.436
95.31,103.423
95.32,103.411
95.33,103.399
95.34,103.387
95.35,103.376
95.36,103.364
95.37,103.352
95.38,103.341
95.39,103.329
95.4,103.318
95.41,103.306
95.42,103.295
95.43,103.284
95.44,103.273
95.45,103.262
95.46,103.251
95.47,103.24
95.48,103.23
95.49,103.219
95.5,103.208
95.51,103.198
95.52,103.187
95.53,103.177
95.54,103.167
95.55,103.157
95.56,103.146
95.57,103.136
95.58,103.126
95.59,103.116
95.6,103.107
95.61,103.097
95.62,103.087
95.63,103.077
95.64,103.068
95.65,103.058
95.66,103.049
95.67,103.039
95.68,103.03
95.69,103.021
95.7,103.012
95.71,103.002
95.72,102.993
95.73,102.984
95.74,102.975
95.75,102.966
95.76,102.958
95.77,102.949
95.78,102.94
95.79,102.931
95.8,102.923
95.81,102.914
95.82,102.906
95.83,102.897
95.84,102.889
95.85,102.881
95.86,102.872
95.87,102.864
95.88,102.856
95.89,102.848
95.9,102.84
95.91,102.832
95.92,102.824
95.93,102.816
95.94,102.808
95.95,102.8
95.96,102.793
95.97,102.785
95.98,102.777
95.99,102.77
96,102.762
96.01,102.755
96.02,102.747
96.03,102.74
96.04,102.732
96.05,102.725
96.06,102.718
96.07,102.711
96.08,102.703
96.09,102.696
96.1,102.689
96.11,102.682
96.12,102.675
96.13,102.668
96.14,102.661
96.15,102.654
96.16,102.648
96.17,102.641
96.18,102.634
96.19,102.627
96.2,102.621
96.21,102.614
96.22,102.608
96.23,102.601
96.24,102.595
96.25,102.588
96.26,102.582
96.27,102.575
96.28,102.569
96.29,102.563
96.3,102.556
96.31,102.55
96.32,102.544
96.33,102.538
96.34,102.532
96.35,102.526
96.36,102.52
96.37,102.514
96.38,102.508
96.39,102.502
96.4,102.496
96.41,102.49
96.42,102.484
96.43,102.478
96.44,102.472
96.45,102.467
96.46,102.461
96.47,102.455
96.48,102.45
96.49,102.444
96.5,102.439
96.51,102.433
96.52,102.427
96.53,102.422
96.54,102.417
96.55,102.411
96.56,102.406
96.57,102.4
96.58,102.395
96.59,102.39
96.6,102.385
96.61,102.379
96.62,102.374
96.63,102.369
96.64,102.364
96.65,102.359
96.66,102.354
96.67,102.349
96.68,102.344
96.69,102.339
96.7,102.334
96.71,102.329
96.72,102.324
96.73,102.319
96.74,102.314
96.75,102.309
96.76,102.304
96.77,102.3
96.78,102.295
96.79,102.29
96.8,102.285
96.81,102.281
96.82,102.276
96.83,102.271
96.84,102.267
96.85,102.262
96.86,102.258
96.87,102.253
96.88,102.249
96.89,102.244
96.9,102.24
96.91,102.235
96.92,102.231
96.93,102.227
96.94,102.222
96.95,102.218
96.96,102.213
96.97,102.209
96.98,102.205
96.99,102.201
97,102.196
97.01,102.192
97.02,102.188
97.03,102.184
97.04,102.18
97.05,102.176
97.06,102.172
97.07,102.168
97.08,102.163
97.09,102.159
97.1,102.155
97.11,102.151
97.12,102.147
97.13,102.144
97.14,102.14
97.15,102.136
97.16,102.132
97.17,102.128
97.18,102.124
97.19,102.12
97.2,102.116
97.21,102.113
97.22,102.109
97.23,102.105
97.24,102.101
97.25,102.098
97.26,102.094
97.27,102.09
97.28,102.087
97.29,102.083
97.3,102.079
97.31,102.076
97.32,102.072
97.33,102.069
97.34,102.065
97.35,102.062
97.36,102.058
97.37,102.055
97.38,102.051
97.39,102.048
97.4,102.044
97.41,102.041
97.42,102.038
97.43,102.035
97.44,102.032
97.45,102.029
97.46,102.026
97.47,102.024
97.48,102.021
97.49,102.02
97.5,102.018
97.51,102.018
97.52,102.018
97.53,102.019
97.54,102.021
97.55,102.024
97.56,102.028
97.57,102.033
97.58,102.039
97.59,102.047
97.6,102.055
97.61,102.064
97.62,102.074
97.63,102.084
97.64,102.094
97.65,102.103
97.66,102.112
97.67,102.119
97.68,102.124
97.69,102.127
97.7,102.128
97.71,102.126
97.72,102.122
97.73,102.115
97.74,102.106
97.75,102.095
97.76,102.082
97.77,102.068
97.78,102.052
97.79,102.037
97.8,102.021
97.81,102.005
97.82,101.99
97.83,101.975
97.84,101.962
97.85,101.95
97.86,101.939
97.87,101.929
97.88,101.92
97.89,101.912
97.9,101.905
97.91,101.899
97.92,101.894
97.93,101.889
97.94,101.885
97.95,101.881
97.96,101.878
97.97,101.874
97.98,101.871
97.99,101.868
98,101.865
98.01,101.863
98.02,101.86
98.03,101.857
98.04,101.855
98.05,101.852
98.06,101.85
98.07,101.847
98.08,101.845
98.09,101.842
98.1,101.84
98.11,101.837
98.12,101.835
98.13,101.832
98.14,101.83
98.15,101.827
98.16,101.825
98.17,101.823
98.18,101.82
98.19,101.818
98.2,101.815
98.21,101.813
98.22,101.811
98.23,101.808
98.24,101.806
98.25,101.804
98.26,101.801
98.27,101.799
98.28,101.797
98.29,101.795
98.3,101.792
98.31,101.79
98.32,101.788
98.33,101.785
98.34,101.783
98.35,101.781
98.36,101.779
98.37,101.777
98.38,101.774
98.39,101.772
98.4,101.77
98.41,101.768
98.42,101.766
98.43,101.764
98.44,101.761
98.45,101.759
98.46,101.757
98.47,101.755
98.48,101.753
98.49,101.751
98.5,101.749
98.51,101.747
98.52,101.745
98.53,101.742
98.54,101.74
98.55,101.738
98.56,101.736
98.57,101.734
98.58,101.732
98.59,101.73
98.6,101.728
98.61,101.726
98.62,101.724
98.63,101.722
98.64,101.72
98.65,101.718
98.66,101.716
98.67,101.714
98.68,101.713
98.69,101.711
98.7,101.709
98.71,101.707
98.72,101.705
98.73,101.703
98.74,101.701
98.75,101.699
98.76,101.697
98.77,101.695
98.78,101.694
98.79,101.692
98.8,101.69
98.81,101.688
98.82,101.686
98.83,101.684
98.84,101.683
98.85,101.681
98.86,101.679
98.87,101.677
98.88,101.675
98.89,101.674
98.9,101.672
98.91,101.67
98.92,101.668
98.93,101.666
98.94,101.665
98.95,101.663
98.96,101.661
98.97,101.66
98.98,101.658
98.99,101.656
99,101.654
99.01,101.653
99.02,101.651
99.03,101.649
99.04,101.648
99.05,101.646
99.06,101.644
99.07,101.643
99.08,101.641
99.09,101.639
99.1,101.638
99.11,101.636
99.12,101.634
99.13,101.633
99.14,101.631
99.15,101.63
99.16,101.628
99.17,101.626
99.18,101.625
99.19,101.623
99.2,101.622
99.21,101.62
99.22,101.618
99.23,101.617
99.24,101.615
99.25,101.614
99.26,101.612
99.27,101.611
99.28,101.609
99.29,101.608
99.3,101.606
99.31,101.605
99.32,101.603
99.33,101.602
99.34,101.6
99.35,101.599
99.36,101.597
99.37,101.596
99.38,101.594
99.39,101.593
99.4,101.591
99.41,101.59
99.42,101.588
99.43,101.587
99.44,101.585
99.45,101.584
99.46,101.582
99.47,101.581
99.48,101.58
99.49,101.578
99.5,101.577
99.51,101.575
99.52,101.574
99.53,101.573
99.54,101.571
99.55,101.57
99.56,101.568
99.57,101.567
99.58,101.566
99.59,101.564
99.6,101.563
99.61,101.562
99.62,101.56
99.63,101.559
99.64,101.558
99.65,101.556
99.66,101.555
99.67,101.554
99.68,101.552
99.69,101.551
99.7,101.55
99.71,101.548
99.72,101.547
99.73,101.546
99.74,101.544
99.75,101.543
99.76,101.542
99.77,101.54
99.78,101.539
99.79,101.538
99.8,101.537
99.81,101.535
99.82,101.534
99.83,101.533
99.84,101.532
99.85,101.53
99.86,101.529
99.87,101.528
99.88,101.527
99.89,101.525
99.9,101.524
99.91,101.523
99.92,101.522
99.93,101.521
99.94,101.519
99.95,101.518
99.96,101.517
99.97,101.516
99.98,101.515
99.99,101.513