File: pb/bose_2007/14nm/xrd/curve_1_fit.dat
35.0,0.138279
35.002,0.138686
35.004,0.139095
35.006,0.139505
35.008,0.139918
35.01,0.140332
35.012,0.140748
35.014,0.141166
35.016,0.141586
35.018,0.142007
35.02,0.142431
35.022,0.142856
35.024,0.143284
35.026,0.143713
35.028,0.144144
35.03,0.144577
35.032,0.145012
35.034,0.145449
35.036,0.145888
35.038,0.146329
35.04,0.146772
35.042,0.147217
35.044,0.147664
35.046,0.148114
35.048,0.148565
35.05,0.149018
35.052,0.149473
35.054,0.14993
35.056,0.15039
35.058,0.150851
35.06,0.151315
35.062,0.151781
35.064,0.152248
35.066,0.152719
35.068,0.153191
35.07,0.153665
35.072,0.154142
35.074,0.154621
35.076,0.155102
35.078,0.155585
35.08,0.156071
35.082,0.156558
35.084,0.157049
35.086,0.157541
35.088,0.158036
35.09,0.158533
35.092,0.159032
35.094,0.159534
35.096,0.160038
35.098,0.160545
35.1,0.161053
35.102,0.161565
35.104,0.162078
35.106,0.162595
35.108,0.163113
35.11,0.163634
35.112,0.164158
35.114,0.164684
35.116,0.165213
35.118,0.165744
35.12,0.166278
35.122,0.166814
35.124,0.167353
35.126,0.167895
35.128,0.168439
35.13,0.168986
35.132,0.169535
35.134,0.170087
35.136,0.170642
35.138,0.171199
35.14,0.17176
35.142,0.172323
35.144,0.172888
35.146,0.173457
35.148,0.174028
35.15,0.174602
35.152,0.175179
35.154,0.175759
35.156,0.176342
35.158,0.176928
35.16,0.177516
35.162,0.178108
35.164,0.178702
35.166,0.179299
35.168,0.1799
35.17,0.180503
35.172,0.181109
35.174,0.181719
35.176,0.182331
35.178,0.182947
35.18,0.183566
35.182,0.184188
35.184,0.184812
35.186,0.185441
35.188,0.186072
35.19,0.186707
35.192,0.187344
35.194,0.187985
35.196,0.18863
35.198,0.189278
35.2,0.189929
35.202,0.190583
35.204,0.191241
35.206,0.191902
35.208,0.192566
35.21,0.193234
35.212,0.193906
35.214,0.194581
35.216,0.195259
35.218,0.195941
35.22,0.196627
35.222,0.197316
35.224,0.198008
35.226,0.198705
35.228,0.199405
35.23,0.200109
35.232,0.200816
35.234,0.201527
35.236,0.202242
35.238,0.202961
35.24,0.203684
35.242,0.20441
35.244,0.20514
35.246,0.205875
35.248,0.206613
35.25,0.207355
35.252,0.208101
35.254,0.208851
35.256,0.209605
35.258,0.210364
35.26,0.211126
35.262,0.211892
35.264,0.212663
35.266,0.213438
35.268,0.214217
35.27,0.215
35.272,0.215788
35.274,0.21658
35.276,0.217376
35.278,0.218177
35.28,0.218982
35.282,0.219791
35.284,0.220605
35.286,0.221424
35.288,0.222247
35.29,0.223074
35.292,0.223906
35.294,0.224743
35.296,0.225585
35.298,0.226431
35.3,0.227282
35.302,0.228138
35.304,0.228998
35.306,0.229864
35.308,0.230734
35.31,0.231609
35.312,0.232489
35.314,0.233375
35.316,0.234265
35.318,0.23516
35.32,0.236061
35.322,0.236966
35.324,0.237877
35.326,0.238793
35.328,0.239714
35.33,0.240641
35.332,0.241573
35.334,0.24251
35.336,0.243453
35.338,0.244401
35.34,0.245355
35.342,0.246315
35.344,0.24728
35.346,0.24825
35.348,0.249227
35.35,0.250209
35.352,0.251197
35.354,0.25219
35.356,0.25319
35.358,0.254195
35.36,0.255207
35.362,0.256224
35.364,0.257248
35.366,0.258277
35.368,0.259313
35.37,0.260355
35.372,0.261403
35.374,0.262458
35.376,0.263519
35.378,0.264586
35.38,0.26566
35.382,0.26674
35.384,0.267827
35.386,0.268921
35.388,0.270021
35.39,0.271128
35.392,0.272241
35.394,0.273362
35.396,0.274489
35.398,0.275624
35.4,0.276765
35.402,0.277914
35.404,0.279069
35.406,0.280232
35.408,0.281402
35.41,0.282579
35.412,0.283764
35.414,0.284956
35.416,0.286155
35.418,0.287362
35.42,0.288577
35.422,0.289799
35.424,0.291029
35.426,0.292267
35.428,0.293513
35.43,0.294766
35.432,0.296028
35.434,0.297298
35.436,0.298576
35.438,0.299862
35.44,0.301156
35.442,0.302459
35.444,0.30377
35.446,0.305089
35.448,0.306417
35.45,0.307754
35.452,0.3091
35.454,0.310454
35.456,0.311817
35.458,0.313189
35.46,0.31457
35.462,0.31596
35.464,0.31736
35.466,0.318768
35.468,0.320186
35.47,0.321613
35.472,0.32305
35.474,0.324497
35.476,0.325953
35.478,0.327419
35.48,0.328894
35.482,0.33038
35.484,0.331876
35.486,0.333381
35.488,0.334897
35.49,0.336423
35.492,0.33796
35.494,0.339507
35.496,0.341065
35.498,0.342633
35.5,0.344212
35.502,0.345802
35.504,0.347403
35.506,0.349015
35.508,0.350638
35.51,0.352272
35.512,0.353918
35.514,0.355575
35.516,0.357244
35.518,0.358924
35.52,0.360616
35.522,0.362321
35.524,0.364037
35.526,0.365765
35.528,0.367506
35.53,0.369258
35.532,0.371024
35.534,0.372802
35.536,0.374592
35.538,0.376396
35.54,0.378212
35.542,0.380042
35.544,0.381884
35.546,0.38374
35.548,0.38561
35.55,0.387493
35.552,0.38939
35.554,0.3913
35.556,0.393225
35.558,0.395163
35.56,0.397116
35.562,0.399084
35.564,0.401065
35.566,0.403062
35.568,0.405073
35.57,0.407099
35.572,0.409141
35.574,0.411197
35.576,0.41327
35.578,0.415357
35.58,0.41746
35.582,0.41958
35.584,0.421715
35.586,0.423866
35.588,0.426034
35.59,0.428218
35.592,0.430419
35.594,0.432637
35.596,0.434872
35.598,0.437124
35.6,0.439393
35.602,0.44168
35.604,0.443985
35.606,0.446307
35.608,0.448648
35.61,0.451007
35.612,0.453384
35.614,0.455781
35.616,0.458196
35.618,0.46063
35.62,0.463083
35.622,0.465555
35.624,0.468048
35.626,0.47056
35.628,0.473092
35.63,0.475645
35.632,0.478218
35.634,0.480812
35.636,0.483426
35.638,0.486062
35.64,0.488719
35.642,0.491398
35.644,0.494099
35.646,0.496822
35.648,0.499567
35.65,0.502335
35.652,0.505125
35.654,0.507939
35.656,0.510776
35.658,0.513636
35.66,0.51652
35.662,0.519429
35.664,0.522361
35.666,0.525319
35.668,0.528301
35.67,0.531308
35.672,0.534341
35.674,0.5374
35.676,0.540484
35.678,0.543595
35.68,0.546733
35.682,0.549897
35.684,0.553089
35.686,0.556308
35.688,0.559555
35.69,0.56283
35.692,0.566134
35.694,0.569466
35.696,0.572828
35.698,0.576219
35.7,0.57964
35.702,0.583091
35.704,0.586572
35.706,0.590085
35.708,0.593628
35.71,0.597204
35.712,0.600811
35.714,0.60445
35.716,0.608123
35.718,0.611828
35.72,0.615567
35.722,0.61934
35.724,0.623147
35.726,0.626989
35.728,0.630866
35.73,0.634778
35.732,0.638727
35.734,0.642712
35.736,0.646734
35.738,0.650793
35.74,0.65489
35.742,0.659025
35.744,0.663199
35.746,0.667412
35.748,0.671665
35.75,0.675958
35.752,0.680292
35.754,0.684667
35.756,0.689083
35.758,0.693542
35.76,0.698043
35.762,0.702588
35.764,0.707177
35.766,0.71181
35.768,0.716488
35.77,0.721211
35.772,0.725981
35.774,0.730797
35.776,0.73566
35.778,0.740572
35.78,0.745532
35.782,0.750541
35.784,0.7556
35.786,0.760709
35.788,0.76587
35.79,0.771082
35.792,0.776347
35.794,0.781665
35.796,0.787037
35.798,0.792463
35.8,0.797945
35.802,0.803483
35.804,0.809077
35.806,0.814729
35.808,0.82044
35.81,0.826209
35.812,0.832039
35.814,0.837929
35.816,0.843881
35.818,0.849895
35.82,0.855973
35.822,0.862115
35.824,0.868322
35.826,0.874594
35.828,0.880934
35.83,0.887341
35.832,0.893817
35.834,0.900363
35.836,0.90698
35.838,0.913668
35.84,0.920429
35.842,0.927264
35.844,0.934174
35.846,0.941159
35.848,0.948221
35.85,0.955362
35.852,0.962582
35.854,0.969882
35.856,0.977263
35.858,0.984727
35.86,0.992276
35.862,0.999909
35.864,1.00763
35.866,1.01544
35.868,1.02333
35.87,1.03132
35.872,1.0394
35.874,1.04757
35.876,1.05583
35.878,1.0642
35.88,1.07266
35.882,1.08121
35.884,1.08987
35.886,1.09863
35.888,1.10749
35.89,1.11646
35.892,1.12554
35.894,1.13472
35.896,1.14401
35.898,1.15342
35.9,1.16293
35.902,1.17257
35.904,1.18232
35.906,1.19218
35.908,1.20217
35.91,1.21229
35.912,1.22252
35.914,1.23288
35.916,1.24338
35.918,1.254
35.92,1.26475
35.922,1.27564
35.924,1.28667
35.926,1.29783
35.928,1.30914
35.93,1.32059
35.932,1.33219
35.934,1.34394
35.936,1.35583
35.938,1.36788
35.94,1.38009
35.942,1.39246
35.944,1.40498
35.946,1.41768
35.948,1.43053
35.95,1.44356
35.952,1.45676
35.954,1.47014
35.956,1.4837
35.958,1.49743
35.96,1.51135
35.962,1.52546
35.964,1.53977
35.966,1.55426
35.968,1.56896
35.97,1.58385
35.972,1.59895
35.974,1.61426
35.976,1.62978
35.978,1.64552
35.98,1.66148
35.982,1.67766
35.984,1.69407
35.986,1.71072
35.988,1.72759
35.99,1.74471
35.992,1.76208
35.994,1.77969
35.996,1.79756
35.998,1.81569
36,1.83408
36.002,1.85273
36.004,1.87167
36.006,1.89088
36.008,1.91037
36.01,1.93015
36.012,1.95023
36.014,1.9706
36.016,1.99129
36.018,2.01228
36.02,2.03359
36.022,2.05522
36.024,2.07719
36.026,2.09948
36.028,2.12213
36.03,2.14512
36.032,2.16846
36.034,2.19217
36.036,2.21625
36.038,2.2407
36.04,2.26554
36.042,2.29077
36.044,2.3164
36.046,2.34244
36.048,2.36889
36.05,2.39577
36.052,2.42307
36.054,2.45082
36.056,2.47902
36.058,2.50768
36.06,2.5368
36.062,2.56641
36.064,2.5965
36.066,2.62708
36.068,2.65817
36.07,2.68978
36.072,2.72192
36.074,2.7546
36.076,2.78782
36.078,2.82161
36.08,2.85597
36.082,2.89091
36.084,2.92645
36.086,2.96259
36.088,2.99936
36.09,3.03676
36.092,3.07481
36.094,3.11352
36.096,3.1529
36.098,3.19298
36.1,3.23375
36.102,3.27524
36.104,3.31747
36.106,3.36044
36.108,3.40417
36.11,3.44869
36.112,3.49399
36.114,3.54012
36.116,3.58707
36.118,3.63486
36.12,3.68352
36.122,3.73306
36.124,3.78351
36.126,3.83487
36.128,3.88717
36.13,3.94043
36.132,3.99466
36.134,4.04989
36.136,4.10615
36.138,4.16344
36.14,4.22179
36.142,4.28122
36.144,4.34175
36.146,4.40342
36.148,4.46623
36.15,4.53021
36.152,4.59539
36.154,4.66179
36.156,4.72943
36.158,4.79834
36.16,4.86854
36.162,4.94005
36.164,5.01291
36.166,5.08713
36.168,5.16275
36.17,5.23978
36.172,5.31826
36.174,5.39821
36.176,5.47965
36.178,5.56262
36.18,5.64713
36.182,5.73321
36.184,5.8209
36.186,5.9102
36.188,6.00116
36.19,6.09379
36.192,6.18812
36.194,6.28418
36.196,6.38198
36.198,6.48155
36.2,6.58292
36.202,6.6861
36.204,6.79111
36.206,6.89798
36.208,7.00671
36.21,7.11734
36.212,7.22987
36.214,7.34432
36.216,7.4607
36.218,7.57902
36.22,7.69929
36.222,7.82151
36.224,7.94569
36.226,8.07182
36.228,8.1999
36.23,8.32993
36.232,8.4619
36.234,8.59579
36.236,8.73159
36.238,8.86927
36.24,9.00881
36.242,9.15017
36.244,9.29332
36.246,9.43822
36.248,9.58482
36.25,9.73306
36.252,9.88288
36.254,10.0342
36.256,10.187
36.258,10.3411
36.26,10.4965
36.262,10.6531
36.264,10.8108
36.266,10.9693
36.268,11.1288
36.27,11.2889
36.272,11.4495
36.274,11.6105
36.276,11.7718
36.278,11.9332
36.28,12.0944
36.282,12.2553
36.284,12.4157
36.286,12.5753
36.288,12.7341
36.29,12.8916
36.292,13.0477
36.294,13.2022
36.296,13.3548
36.298,13.5052
36.3,13.6531
36.302,13.7984
36.304,13.9406
36.306,14.0796
36.308,14.215
36.31,14.3465
36.312,14.4739
36.314,14.5969
36.316,14.7152
36.318,14.8285
36.32,14.9365
36.322,15.039
36.324,15.1357
36.326,15.2263
36.328,15.3107
36.33,15.3885
36.332,15.4597
36.334,15.5238
36.336,15.5809
36.338,15.6307
36.34,15.6731
36.342,15.708
36.344,15.7352
36.346,15.7547
36.348,15.7664
36.35,15.7704
36.352,15.7664
36.354,15.7547
36.356,15.7352
36.358,15.708
36.36,15.6731
36.362,15.6307
36.364,15.5809
36.366,15.5238
36.368,15.4597
36.37,15.3885
36.372,15.3107
36.374,15.2263
36.376,15.1357
36.378,15.039
36.38,14.9365
36.382,14.8285
36.384,14.7152
36.386,14.5969
36.388,14.4739
36.39,14.3465
36.392,14.215
36.394,14.0796
36.396,13.9406
36.398,13.7984
36.4,13.6531
36.402,13.5052
36.404,13.3548
36.406,13.2022
36.408,13.0477
36.41,12.8916
36.412,12.7341
36.414,12.5753
36.416,12.4157
36.418,12.2553
36.42,12.0944
36.422,11.9332
36.424,11.7718
36.426,11.6105
36.428,11.4495
36.43,11.2889
36.432,11.1288
36.434,10.9693
36.436,10.8108
36.438,10.6531
36.44,10.4965
36.442,10.3411
36.444,10.187
36.446,10.0342
36.448,9.88288
36.45,9.73306
36.452,9.58482
36.454,9.43822
36.456,9.29332
36.458,9.15017
36.46,9.00881
36.462,8.86927
36.464,8.73159
36.466,8.59579
36.468,8.4619
36.47,8.32993
36.472,8.1999
36.474,8.07182
36.476,7.94569
36.478,7.82151
36.48,7.69929
36.482,7.57902
36.484,7.4607
36.486,7.34432
36.488,7.22987
36.49,7.11734
36.492,7.00671
36.494,6.89798
36.496,6.79111
36.498,6.6861
36.5,6.58292
36.502,6.48155
36.504,6.38198
36.506,6.28418
36.508,6.18812
36.51,6.09379
36.512,6.00116
36.514,5.9102
36.516,5.8209
36.518,5.73321
36.52,5.64713
36.522,5.56262
36.524,5.47965
36.526,5.39821
36.528,5.31826
36.53,5.23978
36.532,5.16275
36.534,5.08713
36.536,5.01291
36.538,4.94005
36.54,4.86854
36.542,4.79834
36.544,4.72943
36.546,4.66179
36.548,4.59539
36.55,4.53021
36.552,4.46623
36.554,4.40342
36.556,4.34175
36.558,4.28122
36.56,4.22179
36.562,4.16344
36.564,4.10615
36.566,4.04989
36.568,3.99466
36.57,3.94043
36.572,3.88717
36.574,3.83487
36.576,3.78351
36.578,3.73306
36.58,3.68352
36.582,3.63486
36.584,3.58707
36.586,3.54012
36.588,3.49399
36.59,3.44869
36.592,3.40417
36.594,3.36044
36.596,3.31747
36.598,3.27524
36.6,3.23375
36.602,3.19298
36.604,3.1529
36.606,3.11352
36.608,3.07481
36.61,3.03676
36.612,2.99936
36.614,2.96259
36.616,2.92645
36.618,2.89091
36.62,2.85597
36.622,2.82161
36.624,2.78782
36.626,2.7546
36.628,2.72192
36.63,2.68978
36.632,2.65817
36.634,2.62708
36.636,2.5965
36.638,2.56641
36.64,2.5368
36.642,2.50768
36.644,2.47902
36.646,2.45082
36.648,2.42307
36.65,2.39577
36.652,2.36889
36.654,2.34244
36.656,2.3164
36.658,2.29077
36.66,2.26554
36.662,2.2407
36.664,2.21625
36.666,2.19217
36.668,2.16846
36.67,2.14512
36.672,2.12213
36.674,2.09948
36.676,2.07719
36.678,2.05522
36.68,2.03359
36.682,2.01228
36.684,1.99129
36.686,1.9706
36.688,1.95023
36.69,1.93015
36.692,1.91037
36.694,1.89088
36.696,1.87167
36.698,1.85273
36.7,1.83408
36.702,1.81569
36.704,1.79756
36.706,1.77969
36.708,1.76208
36.71,1.74471
36.712,1.72759
36.714,1.71072
36.716,1.69407
36.718,1.67766
36.72,1.66148
36.722,1.64552
36.724,1.62978
36.726,1.61426
36.728,1.59895
36.73,1.58385
36.732,1.56896
36.734,1.55426
36.736,1.53977
36.738,1.52546
36.74,1.51135
36.742,1.49743
36.744,1.4837
36.746,1.47014
36.748,1.45676
36.75,1.44356
36.752,1.43053
36.754,1.41768
36.756,1.40498
36.758,1.39246
36.76,1.38009
36.762,1.36788
36.764,1.35583
36.766,1.34394
36.768,1.33219
36.77,1.32059
36.772,1.30914
36.774,1.29783
36.776,1.28667
36.778,1.27564
36.78,1.26475
36.782,1.254
36.784,1.24338
36.786,1.23288
36.788,1.22252
36.79,1.21229
36.792,1.20217
36.794,1.19218
36.796,1.18232
36.798,1.17257
36.8,1.16293
36.802,1.15342
36.804,1.14401
36.806,1.13472
36.808,1.12554
36.81,1.11646
36.812,1.10749
36.814,1.09863
36.816,1.08987
36.818,1.08121
36.82,1.07266
36.822,1.0642
36.824,1.05583
36.826,1.04757
36.828,1.0394
36.83,1.03132
36.832,1.02333
36.834,1.01544
36.836,1.00763
36.838,0.999909
36.84,0.992276
36.842,0.984727
36.844,0.977263
36.846,0.969882
36.848,0.962582
36.85,0.955362
36.852,0.948221
36.854,0.941159
36.856,0.934174
36.858,0.927264
36.86,0.920429
36.862,0.913668
36.864,0.90698
36.866,0.900363
36.868,0.893817
36.87,0.887341
36.872,0.880934
36.874,0.874594
36.876,0.868322
36.878,0.862115
36.88,0.855973
36.882,0.849895
36.884,0.843881
36.886,0.837929
36.888,0.832039
36.89,0.826209
36.892,0.82044
36.894,0.814729
36.896,0.809077
36.898,0.803483
36.9,0.797945
36.902,0.792463
36.904,0.787037
36.906,0.781665
36.908,0.776347
36.91,0.771082
36.912,0.76587
36.914,0.760709
36.916,0.7556
36.918,0.750541
36.92,0.745532
36.922,0.740572
36.924,0.73566
36.926,0.730797
36.928,0.725981
36.93,0.721211
36.932,0.716488
36.934,0.71181
36.936,0.707177
36.938,0.702588
36.94,0.698043
36.942,0.693542
36.944,0.689083
36.946,0.684667
36.948,0.680292
36.95,0.675958
36.952,0.671665
36.954,0.667412
36.956,0.663199
36.958,0.659025
36.96,0.65489
36.962,0.650793
36.964,0.646734
36.966,0.642712
36.968,0.638727
36.97,0.634778
36.972,0.630866
36.974,0.626989
36.976,0.623147
36.978,0.61934
36.98,0.615567
36.982,0.611828
36.984,0.608123
36.986,0.60445
36.988,0.600811
36.99,0.597204
36.992,0.593628
36.994,0.590085
36.996,0.586572
36.998,0.583091
37,0.57964
37.002,0.576219
37.004,0.572828
37.006,0.569466
37.008,0.566134
37.01,0.56283
37.012,0.559555
37.014,0.556308
37.016,0.553089
37.018,0.549897
37.02,0.546733
37.022,0.543595
37.024,0.540484
37.026,0.5374
37.028,0.534341
37.03,0.531308
37.032,0.528301
37.034,0.525319
37.036,0.522361
37.038,0.519429
37.04,0.51652
37.042,0.513636
37.044,0.510776
37.046,0.507939
37.048,0.505125
37.05,0.502335
37.052,0.499567
37.054,0.496822
37.056,0.494099
37.058,0.491398
37.06,0.488719
37.062,0.486062
37.064,0.483426
37.066,0.480812
37.068,0.478218
37.07,0.475645
37.072,0.473092
37.074,0.47056
37.076,0.468048
37.078,0.465555
37.08,0.463083
37.082,0.46063
37.084,0.458196
37.086,0.455781
37.088,0.453384
37.09,0.451007
37.092,0.448648
37.094,0.446307
37.096,0.443985
37.098,0.44168
37.1,0.439393
37.102,0.437124
37.104,0.434872
37.106,0.432637
37.108,0.430419
37.11,0.428218
37.112,0.426034
37.114,0.423866
37.116,0.421715
37.118,0.41958
37.12,0.41746
37.122,0.415357
37.124,0.41327
37.126,0.411197
37.128,0.409141
37.13,0.407099
37.132,0.405073
37.134,0.403062
37.136,0.401065
37.138,0.399084
37.14,0.397116
37.142,0.395163
37.144,0.393225
37.146,0.3913
37.148,0.38939
37.15,0.387493
37.152,0.38561
37.154,0.38374
37.156,0.381884
37.158,0.380042
37.16,0.378212
37.162,0.376396
37.164,0.374592
37.166,0.372802
37.168,0.371024
37.17,0.369258
37.172,0.367506
37.174,0.365765
37.176,0.364037
37.178,0.362321
37.18,0.360616
37.182,0.358924
37.184,0.357244
37.186,0.355575
37.188,0.353918
37.19,0.352272
37.192,0.350638
37.194,0.349015
37.196,0.347403
37.198,0.345802
37.2,0.344212
37.202,0.342633
37.204,0.341065
37.206,0.339507
37.208,0.33796
37.21,0.336423
37.212,0.334897
37.214,0.333381
37.216,0.331876
37.218,0.33038
37.22,0.328894
37.222,0.327419
37.224,0.325953
37.226,0.324497
37.228,0.32305
37.23,0.321613
37.232,0.320186
37.234,0.318768
37.236,0.31736
37.238,0.31596
37.24,0.31457
37.242,0.313189
37.244,0.311817
37.246,0.310454
37.248,0.3091
37.25,0.307754
37.252,0.306417
37.254,0.305089
37.256,0.30377
37.258,0.302459
37.26,0.301156
37.262,0.299862
37.264,0.298576
37.266,0.297298
37.268,0.296028
37.27,0.294766
37.272,0.293513
37.274,0.292267
37.276,0.291029
37.278,0.289799
37.28,0.288577
37.282,0.287362
37.284,0.286155
37.286,0.284956
37.288,0.283764
37.29,0.282579
37.292,0.281402
37.294,0.280232
37.296,0.279069
37.298,0.277914
37.3,0.276765
37.302,0.275624
37.304,0.274489
37.306,0.273362
37.308,0.272241
37.31,0.271128
37.312,0.270021
37.314,0.268921
37.316,0.267827
37.318,0.26674
37.32,0.26566
37.322,0.264586
37.324,0.263519
37.326,0.262458
37.328,0.261403
37.33,0.260355
37.332,0.259313
37.334,0.258277
37.336,0.257248
37.338,0.256224
37.34,0.255207
37.342,0.254195
37.344,0.25319
37.346,0.25219
37.348,0.251197
37.35,0.250209
37.352,0.249227
37.354,0.24825
37.356,0.24728
37.358,0.246315
37.36,0.245355
37.362,0.244401
37.364,0.243453
37.366,0.24251
37.368,0.241573
37.37,0.240641
37.372,0.239714
37.374,0.238793
37.376,0.237877
37.378,0.236966
37.38,0.236061
37.382,0.23516
37.384,0.234265
37.386,0.233375
37.388,0.232489
37.39,0.231609
37.392,0.230734
37.394,0.229864
37.396,0.228998
37.398,0.228138
37.4,0.227282
37.402,0.226431
37.404,0.225585
37.406,0.224743
37.408,0.223906
37.41,0.223074
37.412,0.222247
37.414,0.221424
37.416,0.220605
37.418,0.219791
37.42,0.218982
37.422,0.218177
37.424,0.217376
37.426,0.21658
37.428,0.215788
37.43,0.215
37.432,0.214217
37.434,0.213438
37.436,0.212663
37.438,0.211892
37.44,0.211126
37.442,0.210364
37.444,0.209605
37.446,0.208851
37.448,0.208101
37.45,0.207355
37.452,0.206613
37.454,0.205875
37.456,0.20514
37.458,0.20441
37.46,0.203684
37.462,0.202961
37.464,0.202242
37.466,0.201527
37.468,0.200816
37.47,0.200109
37.472,0.199405
37.474,0.198705
37.476,0.198008
37.478,0.197316
37.48,0.196627
37.482,0.195941
37.484,0.195259
37.486,0.194581
37.488,0.193906
37.49,0.193234
37.492,0.192566
37.494,0.191902
37.496,0.191241
37.498,0.190583
37.5,0.189929
37.502,0.189278
37.504,0.18863
37.506,0.187985
37.508,0.187344
37.51,0.186707
37.512,0.186072
37.514,0.185441
37.516,0.184812
37.518,0.184188
37.52,0.183566
37.522,0.182947
37.524,0.182331
37.526,0.181719
37.528,0.181109
37.53,0.180503
37.532,0.1799
37.534,0.179299
37.536,0.178702
37.538,0.178108
37.54,0.177516
37.542,0.176928
37.544,0.176342
37.546,0.175759
37.548,0.175179
37.55,0.174602
37.552,0.174028
37.554,0.173457
37.556,0.172888
37.558,0.172323
37.56,0.17176
37.562,0.171199
37.564,0.170642
37.566,0.170087
37.568,0.169535
37.57,0.168986
37.572,0.168439
37.574,0.167895
37.576,0.167353
37.578,0.166814
37.58,0.166278
37.582,0.165744
37.584,0.165213
37.586,0.164684
37.588,0.164158
37.59,0.163634
37.592,0.163113
37.594,0.162595
37.596,0.162078
37.598,0.161565
37.6,0.161053
37.602,0.160545
37.604,0.160038
37.606,0.159534
37.608,0.159032
37.61,0.158533
37.612,0.158036
37.614,0.157541
37.616,0.157049
37.618,0.156558
37.62,0.156071
37.622,0.155585
37.624,0.155102
37.626,0.154621
37.628,0.154142
37.63,0.153665
37.632,0.153191
37.634,0.152719
37.636,0.152248
37.638,0.151781
37.64,0.151315
37.642,0.150851
37.644,0.15039
37.646,0.14993
37.648,0.149473
37.65,0.149018
37.652,0.148565
37.654,0.148114
37.656,0.147664
37.658,0.147217
37.66,0.146772
37.662,0.146329
37.664,0.145888
37.666,0.145449
37.668,0.145012
37.67,0.144577
37.672,0.144144
37.674,0.143713
37.676,0.143284
37.678,0.142856
37.68,0.142431
37.682,0.142007
37.684,0.141586
37.686,0.141166
37.688,0.140748
37.69,0.140332
37.692,0.139918
37.694,0.139505
37.696,0.139095
37.698,0.138686
37.7,0.138279
37.702,0.137874
37.704,0.13747
37.706,0.137068
37.708,0.136668
37.71,0.13627
37.712,0.135874
37.714,0.135479
37.716,0.135086
37.718,0.134695
37.72,0.134305
37.722,0.133917
37.724,0.133531
37.726,0.133146
37.728,0.132763
37.73,0.132382
37.732,0.132002
37.734,0.131624
37.736,0.131248
37.738,0.130873
37.74,0.1305
37.742,0.130128
37.744,0.129758
37.746,0.12939
37.748,0.129023
37.75,0.128657
37.752,0.128293
37.754,0.127931
37.756,0.12757
37.758,0.127211
37.76,0.126853
37.762,0.126497
37.764,0.126142
37.766,0.125789
37.768,0.125437
37.77,0.125087
37.772,0.124738
37.774,0.124391
37.776,0.124045
37.778,0.123701
37.78,0.123357
37.782,0.123016
37.784,0.122676
37.786,0.122337
37.788,0.121999
37.79,0.121663
37.792,0.121329
37.794,0.120995
37.796,0.120663
37.798,0.120333
37.8,0.120004
37.802,0.119676
37.804,0.119349
37.806,0.119024
37.808,0.1187
37.81,0.118378
37.812,0.118056
37.814,0.117737
37.816,0.117418
37.818,0.117101
37.82,0.116785
37.822,0.11647
37.824,0.116156
37.826,0.115844
37.828,0.115533
37.83,0.115223
37.832,0.114915
37.834,0.114607
37.836,0.114301
37.838,0.113996
37.84,0.113693
37.842,0.11339
37.844,0.113089
37.846,0.112789
37.848,0.11249
37.85,0.112193
37.852,0.111896
37.854,0.111601
37.856,0.111307
37.858,0.111014
37.86,0.110722
37.862,0.110431
37.864,0.110142
37.866,0.109853
37.868,0.109566
37.87,0.10928
37.872,0.108995
37.874,0.108711
37.876,0.108428
37.878,0.108147
37.88,0.107866
37.882,0.107586
37.884,0.107308
37.886,0.107031
37.888,0.106754
37.89,0.106479
37.892,0.106205
37.894,0.105932
37.896,0.10566
37.898,0.105389
37.9,0.105119
37.902,0.10485
37.904,0.104582
37.906,0.104315
37.908,0.104049
37.91,0.103784
37.912,0.10352
37.914,0.103257
37.916,0.102996
37.918,0.102735
37.92,0.102475
37.922,0.102216
37.924,0.101958
37.926,0.101701
37.928,0.101445
37.93,0.10119
37.932,0.100936
37.934,0.100683
37.936,0.100431
37.938,0.10018
37.94,0.0999293
37.942,0.09968
37.944,0.0994316
37.946,0.0991841
37.948,0.0989376
37.95,0.0986919
37.952,0.0984472
37.954,0.0982034
37.956,0.0979605
37.958,0.0977184
37.96,0.0974773
37.962,0.0972371
37.964,0.0969977
37.966,0.0967592
37.968,0.0965216
37.97,0.0962849
37.972,0.0960491
37.974,0.0958141
37.976,0.0955799
37.978,0.0953467
37.98,0.0951142
37.982,0.0948827
37.984,0.0946519
37.986,0.094422
37.988,0.094193
37.99,0.0939647
37.992,0.0937373
37.994,0.0935107
37.996,0.093285
37.998,0.09306
37.999,0.0929479