File: pb/bose_2007/14nm/xrd/curve_total_fit.dat
35.0,258.268
35.002,258.269
35.004,258.269
35.006,258.27
35.008,258.27
35.01,258.27
35.012,258.271
35.014,258.271
35.016,258.272
35.018,258.272
35.02,258.272
35.022,258.273
35.024,258.273
35.026,258.274
35.028,258.274
35.03,258.275
35.032,258.275
35.034,258.275
35.036,258.276
35.038,258.276
35.04,258.277
35.042,258.277
35.044,258.278
35.046,258.278
35.048,258.279
35.05,258.279
35.052,258.279
35.054,258.28
35.056,258.28
35.058,258.281
35.06,258.281
35.062,258.282
35.064,258.282
35.066,258.283
35.068,258.283
35.07,258.284
35.072,258.284
35.074,258.285
35.076,258.285
35.078,258.286
35.08,258.286
35.082,258.287
35.084,258.287
35.086,258.288
35.088,258.288
35.09,258.289
35.092,258.289
35.094,258.29
35.096,258.29
35.098,258.291
35.1,258.291
35.102,258.292
35.104,258.292
35.106,258.293
35.108,258.293
35.11,258.294
35.112,258.294
35.114,258.295
35.116,258.295
35.118,258.296
35.12,258.296
35.122,258.297
35.124,258.297
35.126,258.298
35.128,258.298
35.13,258.299
35.132,258.3
35.134,258.3
35.136,258.301
35.138,258.301
35.14,258.302
35.142,258.302
35.144,258.303
35.146,258.303
35.148,258.304
35.15,258.305
35.152,258.305
35.154,258.306
35.156,258.306
35.158,258.307
35.16,258.308
35.162,258.308
35.164,258.309
35.166,258.309
35.168,258.31
35.17,258.311
35.172,258.311
35.174,258.312
35.176,258.312
35.178,258.313
35.18,258.314
35.182,258.314
35.184,258.315
35.186,258.315
35.188,258.316
35.19,258.317
35.192,258.317
35.194,258.318
35.196,258.319
35.198,258.319
35.2,258.32
35.202,258.321
35.204,258.321
35.206,258.322
35.208,258.323
35.21,258.323
35.212,258.324
35.214,258.325
35.216,258.325
35.218,258.326
35.22,258.327
35.222,258.327
35.224,258.328
35.226,258.329
35.228,258.329
35.23,258.33
35.232,258.331
35.234,258.332
35.236,258.332
35.238,258.333
35.24,258.334
35.242,258.334
35.244,258.335
35.246,258.336
35.248,258.337
35.25,258.337
35.252,258.338
35.254,258.339
35.256,258.34
35.258,258.34
35.26,258.341
35.262,258.342
35.264,258.343
35.266,258.343
35.268,258.344
35.27,258.345
35.272,258.346
35.274,258.347
35.276,258.347
35.278,258.348
35.28,258.349
35.282,258.35
35.284,258.351
35.286,258.351
35.288,258.352
35.29,258.353
35.292,258.354
35.294,258.355
35.296,258.356
35.298,258.356
35.3,258.357
35.302,258.358
35.304,258.359
35.306,258.36
35.308,258.361
35.31,258.362
35.312,258.362
35.314,258.363
35.316,258.364
35.318,258.365
35.32,258.366
35.322,258.367
35.324,258.368
35.326,258.369
35.328,258.37
35.33,258.371
35.332,258.372
35.334,258.373
35.336,258.373
35.338,258.374
35.34,258.375
35.342,258.376
35.344,258.377
35.346,258.378
35.348,258.379
35.35,258.38
35.352,258.381
35.354,258.382
35.356,258.383
35.358,258.384
35.36,258.385
35.362,258.386
35.364,258.387
35.366,258.388
35.368,258.389
35.37,258.39
35.372,258.391
35.374,258.392
35.376,258.394
35.378,258.395
35.38,258.396
35.382,258.397
35.384,258.398
35.386,258.399
35.388,258.4
35.39,258.401
35.392,258.402
35.394,258.403
35.396,258.404
35.398,258.406
35.4,258.407
35.402,258.408
35.404,258.409
35.406,258.41
35.408,258.411
35.41,258.413
35.412,258.414
35.414,258.415
35.416,258.416
35.418,258.417
35.42,258.419
35.422,258.42
35.424,258.421
35.426,258.422
35.428,258.424
35.43,258.425
35.432,258.426
35.434,258.427
35.436,258.429
35.438,258.43
35.44,258.431
35.442,258.432
35.444,258.434
35.446,258.435
35.448,258.436
35.45,258.438
35.452,258.439
35.454,258.44
35.456,258.442
35.458,258.443
35.46,258.445
35.462,258.446
35.464,258.447
35.466,258.449
35.468,258.45
35.47,258.452
35.472,258.453
35.474,258.454
35.476,258.456
35.478,258.457
35.48,258.459
35.482,258.46
35.484,258.462
35.486,258.463
35.488,258.465
35.49,258.466
35.492,258.468
35.494,258.47
35.496,258.471
35.498,258.473
35.5,258.474
35.502,258.476
35.504,258.477
35.506,258.479
35.508,258.481
35.51,258.482
35.512,258.484
35.514,258.486
35.516,258.487
35.518,258.489
35.52,258.491
35.522,258.492
35.524,258.494
35.526,258.496
35.528,258.498
35.53,258.499
35.532,258.501
35.534,258.503
35.536,258.505
35.538,258.506
35.54,258.508
35.542,258.51
35.544,258.512
35.546,258.514
35.548,258.516
35.55,258.517
35.552,258.519
35.554,258.521
35.556,258.523
35.558,258.525
35.56,258.527
35.562,258.529
35.564,258.531
35.566,258.533
35.568,258.535
35.57,258.537
35.572,258.539
35.574,258.541
35.576,258.543
35.578,258.545
35.58,258.547
35.582,258.55
35.584,258.552
35.586,258.554
35.588,258.556
35.59,258.558
35.592,258.56
35.594,258.563
35.596,258.565
35.598,258.567
35.6,258.569
35.602,258.572
35.604,258.574
35.606,258.576
35.608,258.579
35.61,258.581
35.612,258.583
35.614,258.586
35.616,258.588
35.618,258.591
35.62,258.593
35.622,258.596
35.624,258.598
35.626,258.601
35.628,258.603
35.63,258.606
35.632,258.608
35.634,258.611
35.636,258.613
35.638,258.616
35.64,258.619
35.642,258.621
35.644,258.624
35.646,258.627
35.648,258.63
35.65,258.632
35.652,258.635
35.654,258.638
35.656,258.641
35.658,258.644
35.66,258.647
35.662,258.649
35.664,258.652
35.666,258.655
35.668,258.658
35.67,258.661
35.672,258.664
35.674,258.667
35.676,258.67
35.678,258.674
35.68,258.677
35.682,258.68
35.684,258.683
35.686,258.686
35.688,258.69
35.69,258.693
35.692,258.696
35.694,258.699
35.696,258.703
35.698,258.706
35.7,258.71
35.702,258.713
35.704,258.717
35.706,258.72
35.708,258.724
35.71,258.727
35.712,258.731
35.714,258.734
35.716,258.738
35.718,258.742
35.72,258.746
35.722,258.749
35.724,258.753
35.726,258.757
35.728,258.761
35.73,258.765
35.732,258.769
35.734,258.773
35.736,258.777
35.738,258.781
35.74,258.785
35.742,258.789
35.744,258.793
35.746,258.797
35.748,258.802
35.75,258.806
35.752,258.81
35.754,258.815
35.756,258.819
35.758,258.824
35.76,258.828
35.762,258.833
35.764,258.837
35.766,258.842
35.768,258.846
35.77,258.851
35.772,258.856
35.774,258.861
35.776,258.866
35.778,258.871
35.78,258.876
35.782,258.881
35.784,258.886
35.786,258.891
35.788,258.896
35.79,258.901
35.792,258.906
35.794,258.912
35.796,258.917
35.798,258.922
35.8,258.928
35.802,258.933
35.804,258.939
35.806,258.945
35.808,258.95
35.81,258.956
35.812,258.962
35.814,258.968
35.816,258.974
35.818,258.98
35.82,258.986
35.822,258.992
35.824,258.998
35.826,259.005
35.828,259.011
35.83,259.017
35.832,259.024
35.834,259.03
35.836,259.037
35.838,259.044
35.84,259.05
35.842,259.057
35.844,259.064
35.846,259.071
35.848,259.078
35.85,259.085
35.852,259.093
35.854,259.1
35.856,259.107
35.858,259.115
35.86,259.122
35.862,259.13
35.864,259.138
35.866,259.145
35.868,259.153
35.87,259.161
35.872,259.169
35.874,259.178
35.876,259.186
35.878,259.194
35.88,259.203
35.882,259.211
35.884,259.22
35.886,259.229
35.888,259.237
35.89,259.246
35.892,259.256
35.894,259.265
35.896,259.274
35.898,259.283
35.9,259.293
35.902,259.303
35.904,259.312
35.906,259.322
35.908,259.332
35.91,259.342
35.912,259.353
35.914,259.363
35.916,259.373
35.918,259.384
35.92,259.395
35.922,259.406
35.924,259.417
35.926,259.428
35.928,259.439
35.93,259.451
35.932,259.462
35.934,259.474
35.936,259.486
35.938,259.498
35.94,259.51
35.942,259.522
35.944,259.535
35.946,259.548
35.948,259.561
35.95,259.574
35.952,259.587
35.954,259.6
35.956,259.614
35.958,259.627
35.96,259.641
35.962,259.655
35.964,259.67
35.966,259.684
35.968,259.699
35.97,259.714
35.972,259.729
35.974,259.744
35.976,259.76
35.978,259.776
35.98,259.791
35.982,259.808
35.984,259.824
35.986,259.841
35.988,259.858
35.99,259.875
35.992,259.892
35.994,259.91
35.996,259.928
35.998,259.946
36,259.964
36.002,259.983
36.004,260.002
36.006,260.021
36.008,260.04
36.01,260.06
36.012,260.08
36.014,260.101
36.016,260.121
36.018,260.142
36.02,260.164
36.022,260.185
36.024,260.207
36.026,260.229
36.028,260.252
36.03,260.275
36.032,260.298
36.034,260.322
36.036,260.346
36.038,260.371
36.04,260.396
36.042,260.421
36.044,260.446
36.046,260.472
36.048,260.499
36.05,260.526
36.052,260.553
36.054,260.581
36.056,260.609
36.058,260.638
36.06,260.667
36.062,260.696
36.064,260.726
36.066,260.757
36.068,260.788
36.07,260.82
36.072,260.852
36.074,260.885
36.076,260.918
36.078,260.952
36.08,260.986
36.082,261.021
36.084,261.056
36.086,261.093
36.088,261.129
36.09,261.167
36.092,261.205
36.094,261.244
36.096,261.283
36.098,261.323
36.1,261.364
36.102,261.405
36.104,261.447
36.106,261.49
36.108,261.534
36.11,261.579
36.112,261.624
36.114,261.67
36.116,261.717
36.118,261.765
36.12,261.814
36.122,261.863
36.124,261.914
36.126,261.965
36.128,262.017
36.13,262.07
36.132,262.125
36.134,262.18
36.136,262.236
36.138,262.293
36.14,262.352
36.142,262.411
36.144,262.472
36.146,262.533
36.148,262.596
36.15,262.66
36.152,262.725
36.154,262.792
36.156,262.859
36.158,262.928
36.16,262.999
36.162,263.07
36.164,263.143
36.166,263.217
36.168,263.293
36.17,263.37
36.172,263.448
36.174,263.528
36.176,263.61
36.178,263.693
36.18,263.777
36.182,263.863
36.184,263.951
36.186,264.04
36.188,264.131
36.19,264.224
36.192,264.318
36.194,264.414
36.196,264.512
36.198,264.612
36.2,264.713
36.202,264.816
36.204,264.921
36.206,265.028
36.208,265.137
36.21,265.247
36.212,265.36
36.214,265.474
36.216,265.591
36.218,265.709
36.22,265.829
36.222,265.952
36.224,266.076
36.226,266.202
36.228,266.33
36.23,266.46
36.232,266.592
36.234,266.726
36.236,266.862
36.238,266.999
36.24,267.139
36.242,267.28
36.244,267.423
36.246,267.568
36.248,267.715
36.25,267.863
36.252,268.013
36.254,268.164
36.256,268.317
36.258,268.471
36.26,268.627
36.262,268.783
36.264,268.941
36.266,269.099
36.268,269.259
36.27,269.419
36.272,269.58
36.274,269.741
36.276,269.902
36.278,270.063
36.28,270.224
36.282,270.385
36.284,270.546
36.286,270.705
36.288,270.864
36.29,271.022
36.292,271.178
36.294,271.332
36.296,271.485
36.298,271.635
36.3,271.783
36.302,271.928
36.304,272.071
36.306,272.21
36.308,272.345
36.31,272.477
36.312,272.604
36.314,272.727
36.316,272.845
36.318,272.958
36.32,273.067
36.322,273.169
36.324,273.266
36.326,273.356
36.328,273.441
36.33,273.519
36.332,273.59
36.334,273.654
36.336,273.711
36.338,273.761
36.34,273.803
36.342,273.838
36.344,273.865
36.346,273.885
36.348,273.896
36.35,273.9
36.352,273.896
36.354,273.885
36.356,273.865
36.358,273.838
36.36,273.803
36.362,273.761
36.364,273.711
36.366,273.654
36.368,273.59
36.37,273.519
36.372,273.441
36.374,273.356
36.376,273.266
36.378,273.169
36.38,273.067
36.382,272.958
36.384,272.845
36.386,272.727
36.388,272.604
36.39,272.477
36.392,272.345
36.394,272.21
36.396,272.071
36.398,271.928
36.4,271.783
36.402,271.635
36.404,271.485
36.406,271.332
36.408,271.178
36.41,271.022
36.412,270.864
36.414,270.705
36.416,270.546
36.418,270.385
36.42,270.224
36.422,270.063
36.424,269.902
36.426,269.741
36.428,269.58
36.43,269.419
36.432,269.259
36.434,269.099
36.436,268.941
36.438,268.783
36.44,268.627
36.442,268.471
36.444,268.317
36.446,268.164
36.448,268.013
36.45,267.863
36.452,267.715
36.454,267.568
36.456,267.423
36.458,267.28
36.46,267.139
36.462,266.999
36.464,266.862
36.466,266.726
36.468,266.592
36.47,266.46
36.472,266.33
36.474,266.202
36.476,266.076
36.478,265.952
36.48,265.829
36.482,265.709
36.484,265.591
36.486,265.474
36.488,265.36
36.49,265.247
36.492,265.137
36.494,265.028
36.496,264.921
36.498,264.816
36.5,264.713
36.502,264.612
36.504,264.512
36.506,264.414
36.508,264.318
36.51,264.224
36.512,264.131
36.514,264.04
36.516,263.951
36.518,263.863
36.52,263.777
36.522,263.693
36.524,263.61
36.526,263.528
36.528,263.448
36.53,263.37
36.532,263.293
36.534,263.217
36.536,263.143
36.538,263.07
36.54,262.999
36.542,262.928
36.544,262.859
36.546,262.792
36.548,262.725
36.55,262.66
36.552,262.596
36.554,262.533
36.556,262.472
36.558,262.411
36.56,262.352
36.562,262.293
36.564,262.236
36.566,262.18
36.568,262.125
36.57,262.07
36.572,262.017
36.574,261.965
36.576,261.914
36.578,261.863
36.58,261.814
36.582,261.765
36.584,261.717
36.586,261.67
36.588,261.624
36.59,261.579
36.592,261.534
36.594,261.49
36.596,261.447
36.598,261.405
36.6,261.364
36.602,261.323
36.604,261.283
36.606,261.244
36.608,261.205
36.61,261.167
36.612,261.129
36.614,261.093
36.616,261.056
36.618,261.021
36.62,260.986
36.622,260.952
36.624,260.918
36.626,260.885
36.628,260.852
36.63,260.82
36.632,260.788
36.634,260.757
36.636,260.726
36.638,260.696
36.64,260.667
36.642,260.638
36.644,260.609
36.646,260.581
36.648,260.553
36.65,260.526
36.652,260.499
36.654,260.472
36.656,260.446
36.658,260.421
36.66,260.396
36.662,260.371
36.664,260.346
36.666,260.322
36.668,260.298
36.67,260.275
36.672,260.252
36.674,260.229
36.676,260.207
36.678,260.185
36.68,260.164
36.682,260.142
36.684,260.121
36.686,260.101
36.688,260.08
36.69,260.06
36.692,260.04
36.694,260.021
36.696,260.002
36.698,259.983
36.7,259.964
36.702,259.946
36.704,259.928
36.706,259.91
36.708,259.892
36.71,259.875
36.712,259.858
36.714,259.841
36.716,259.824
36.718,259.808
36.72,259.791
36.722,259.776
36.724,259.76
36.726,259.744
36.728,259.729
36.73,259.714
36.732,259.699
36.734,259.684
36.736,259.67
36.738,259.655
36.74,259.641
36.742,259.627
36.744,259.614
36.746,259.6
36.748,259.587
36.75,259.574
36.752,259.561
36.754,259.548
36.756,259.535
36.758,259.522
36.76,259.51
36.762,259.498
36.764,259.486
36.766,259.474
36.768,259.462
36.77,259.451
36.772,259.439
36.774,259.428
36.776,259.417
36.778,259.406
36.78,259.395
36.782,259.384
36.784,259.373
36.786,259.363
36.788,259.353
36.79,259.342
36.792,259.332
36.794,259.322
36.796,259.312
36.798,259.303
36.8,259.293
36.802,259.283
36.804,259.274
36.806,259.265
36.808,259.256
36.81,259.246
36.812,259.237
36.814,259.229
36.816,259.22
36.818,259.211
36.82,259.203
36.822,259.194
36.824,259.186
36.826,259.178
36.828,259.169
36.83,259.161
36.832,259.153
36.834,259.145
36.836,259.138
36.838,259.13
36.84,259.122
36.842,259.115
36.844,259.107
36.846,259.1
36.848,259.093
36.85,259.085
36.852,259.078
36.854,259.071
36.856,259.064
36.858,259.057
36.86,259.05
36.862,259.044
36.864,259.037
36.866,259.03
36.868,259.024
36.87,259.017
36.872,259.011
36.874,259.005
36.876,258.998
36.878,258.992
36.88,258.986
36.882,258.98
36.884,258.974
36.886,258.968
36.888,258.962
36.89,258.956
36.892,258.95
36.894,258.945
36.896,258.939
36.898,258.933
36.9,258.928
36.902,258.922
36.904,258.917
36.906,258.912
36.908,258.906
36.91,258.901
36.912,258.896
36.914,258.891
36.916,258.886
36.918,258.881
36.92,258.876
36.922,258.871
36.924,258.866
36.926,258.861
36.928,258.856
36.93,258.851
36.932,258.846
36.934,258.842
36.936,258.837
36.938,258.833
36.94,258.828
36.942,258.824
36.944,258.819
36.946,258.815
36.948,258.81
36.95,258.806
36.952,258.802
36.954,258.797
36.956,258.793
36.958,258.789
36.96,258.785
36.962,258.781
36.964,258.777
36.966,258.773
36.968,258.769
36.97,258.765
36.972,258.761
36.974,258.757
36.976,258.753
36.978,258.749
36.98,258.746
36.982,258.742
36.984,258.738
36.986,258.734
36.988,258.731
36.99,258.727
36.992,258.724
36.994,258.72
36.996,258.717
36.998,258.713
37,258.71
37.002,258.706
37.004,258.703
37.006,258.699
37.008,258.696
37.01,258.693
37.012,258.69
37.014,258.686
37.016,258.683
37.018,258.68
37.02,258.677
37.022,258.674
37.024,258.67
37.026,258.667
37.028,258.664
37.03,258.661
37.032,258.658
37.034,258.655
37.036,258.652
37.038,258.649
37.04,258.647
37.042,258.644
37.044,258.641
37.046,258.638
37.048,258.635
37.05,258.632
37.052,258.63
37.054,258.627
37.056,258.624
37.058,258.621
37.06,258.619
37.062,258.616
37.064,258.613
37.066,258.611
37.068,258.608
37.07,258.606
37.072,258.603
37.074,258.601
37.076,258.598
37.078,258.596
37.08,258.593
37.082,258.591
37.084,258.588
37.086,258.586
37.088,258.583
37.09,258.581
37.092,258.579
37.094,258.576
37.096,258.574
37.098,258.572
37.1,258.569
37.102,258.567
37.104,258.565
37.106,258.563
37.108,258.56
37.11,258.558
37.112,258.556
37.114,258.554
37.116,258.552
37.118,258.55
37.12,258.547
37.122,258.545
37.124,258.543
37.126,258.541
37.128,258.539
37.13,258.537
37.132,258.535
37.134,258.533
37.136,258.531
37.138,258.529
37.14,258.527
37.142,258.525
37.144,258.523
37.146,258.521
37.148,258.519
37.15,258.517
37.152,258.516
37.154,258.514
37.156,258.512
37.158,258.51
37.16,258.508
37.162,258.506
37.164,258.505
37.166,258.503
37.168,258.501
37.17,258.499
37.172,258.498
37.174,258.496
37.176,258.494
37.178,258.492
37.18,258.491
37.182,258.489
37.184,258.487
37.186,258.486
37.188,258.484
37.19,258.482
37.192,258.481
37.194,258.479
37.196,258.477
37.198,258.476
37.2,258.474
37.202,258.473
37.204,258.471
37.206,258.47
37.208,258.468
37.21,258.466
37.212,258.465
37.214,258.463
37.216,258.462
37.218,258.46
37.22,258.459
37.222,258.457
37.224,258.456
37.226,258.454
37.228,258.453
37.23,258.452
37.232,258.45
37.234,258.449
37.236,258.447
37.238,258.446
37.24,258.445
37.242,258.443
37.244,258.442
37.246,258.44
37.248,258.439
37.25,258.438
37.252,258.436
37.254,258.435
37.256,258.434
37.258,258.432
37.26,258.431
37.262,258.43
37.264,258.429
37.266,258.427
37.268,258.426
37.27,258.425
37.272,258.424
37.274,258.422
37.276,258.421
37.278,258.42
37.28,258.419
37.282,258.417
37.284,258.416
37.286,258.415
37.288,258.414
37.29,258.413
37.292,258.411
37.294,258.41
37.296,258.409
37.298,258.408
37.3,258.407
37.302,258.406
37.304,258.404
37.306,258.403
37.308,258.402
37.31,258.401
37.312,258.4
37.314,258.399
37.316,258.398
37.318,258.397
37.32,258.396
37.322,258.395
37.324,258.394
37.326,258.392
37.328,258.391
37.33,258.39
37.332,258.389
37.334,258.388
37.336,258.387
37.338,258.386
37.34,258.385
37.342,258.384
37.344,258.383
37.346,258.382
37.348,258.381
37.35,258.38
37.352,258.379
37.354,258.378
37.356,258.377
37.358,258.376
37.36,258.375
37.362,258.374
37.364,258.373
37.366,258.373
37.368,258.372
37.37,258.371
37.372,258.37
37.374,258.369
37.376,258.368
37.378,258.367
37.38,258.366
37.382,258.365
37.384,258.364
37.386,258.363
37.388,258.362
37.39,258.362
37.392,258.361
37.394,258.36
37.396,258.359
37.398,258.358
37.4,258.357
37.402,258.356
37.404,258.356
37.406,258.355
37.408,258.354
37.41,258.353
37.412,258.352
37.414,258.351
37.416,258.351
37.418,258.35
37.42,258.349
37.422,258.348
37.424,258.347
37.426,258.347
37.428,258.346
37.43,258.345
37.432,258.344
37.434,258.343
37.436,258.343
37.438,258.342
37.44,258.341
37.442,258.34
37.444,258.34
37.446,258.339
37.448,258.338
37.45,258.337
37.452,258.337
37.454,258.336
37.456,258.335
37.458,258.334
37.46,258.334
37.462,258.333
37.464,258.332
37.466,258.332
37.468,258.331
37.47,258.33
37.472,258.329
37.474,258.329
37.476,258.328
37.478,258.327
37.48,258.327
37.482,258.326
37.484,258.325
37.486,258.325
37.488,258.324
37.49,258.323
37.492,258.323
37.494,258.322
37.496,258.321
37.498,258.321
37.5,258.32
37.502,258.319
37.504,258.319
37.506,258.318
37.508,258.317
37.51,258.317
37.512,258.316
37.514,258.315
37.516,258.315
37.518,258.314
37.52,258.314
37.522,258.313
37.524,258.312
37.526,258.312
37.528,258.311
37.53,258.311
37.532,258.31
37.534,258.309
37.536,258.309
37.538,258.308
37.54,258.308
37.542,258.307
37.544,258.306
37.546,258.306
37.548,258.305
37.55,258.305
37.552,258.304
37.554,258.303
37.556,258.303
37.558,258.302
37.56,258.302
37.562,258.301
37.564,258.301
37.566,258.3
37.568,258.3
37.57,258.299
37.572,258.298
37.574,258.298
37.576,258.297
37.578,258.297
37.58,258.296
37.582,258.296
37.584,258.295
37.586,258.295
37.588,258.294
37.59,258.294
37.592,258.293
37.594,258.293
37.596,258.292
37.598,258.292
37.6,258.291
37.602,258.291
37.604,258.29
37.606,258.29
37.608,258.289
37.61,258.289
37.612,258.288
37.614,258.288
37.616,258.287
37.618,258.287
37.62,258.286
37.622,258.286
37.624,258.285
37.626,258.285
37.628,258.284
37.63,258.284
37.632,258.283
37.634,258.283
37.636,258.282
37.638,258.282
37.64,258.281
37.642,258.281
37.644,258.28
37.646,258.28
37.648,258.279
37.65,258.279
37.652,258.279
37.654,258.278
37.656,258.278
37.658,258.277
37.66,258.277
37.662,258.276
37.664,258.276
37.666,258.275
37.668,258.275
37.67,258.275
37.672,258.274
37.674,258.274
37.676,258.273
37.678,258.273
37.68,258.272
37.682,258.272
37.684,258.272
37.686,258.271
37.688,258.271
37.69,258.27
37.692,258.27
37.694,258.27
37.696,258.269
37.698,258.269
37.7,258.268
37.702,258.268
37.704,258.267
37.706,258.267
37.708,258.267
37.71,258.266
37.712,258.266
37.714,258.265
37.716,258.265
37.718,258.265
37.72,258.264
37.722,258.264
37.724,258.264
37.726,258.263
37.728,258.263
37.73,258.262
37.732,258.262
37.734,258.262
37.736,258.261
37.738,258.261
37.74,258.26
37.742,258.26
37.744,258.26
37.746,258.259
37.748,258.259
37.75,258.259
37.752,258.258
37.754,258.258
37.756,258.258
37.758,258.257
37.76,258.257
37.762,258.256
37.764,258.256
37.766,258.256
37.768,258.255
37.77,258.255
37.772,258.255
37.774,258.254
37.776,258.254
37.778,258.254
37.78,258.253
37.782,258.253
37.784,258.253
37.786,258.252
37.788,258.252
37.79,258.252
37.792,258.251
37.794,258.251
37.796,258.251
37.798,258.25
37.8,258.25
37.802,258.25
37.804,258.249
37.806,258.249
37.808,258.249
37.81,258.248
37.812,258.248
37.814,258.248
37.816,258.247
37.818,258.247
37.82,258.247
37.822,258.246
37.824,258.246
37.826,258.246
37.828,258.246
37.83,258.245
37.832,258.245
37.834,258.245
37.836,258.244
37.838,258.244
37.84,258.244
37.842,258.243
37.844,258.243
37.846,258.243
37.848,258.242
37.85,258.242
37.852,258.242
37.854,258.242
37.856,258.241
37.858,258.241
37.86,258.241
37.862,258.24
37.864,258.24
37.866,258.24
37.868,258.24
37.87,258.239
37.872,258.239
37.874,258.239
37.876,258.238
37.878,258.238
37.88,258.238
37.882,258.238
37.884,258.237
37.886,258.237
37.888,258.237
37.89,258.236
37.892,258.236
37.894,258.236
37.896,258.236
37.898,258.235
37.9,258.235
37.902,258.235
37.904,258.235
37.906,258.234
37.908,258.234
37.91,258.234
37.912,258.234
37.914,258.233
37.916,258.233
37.918,258.233
37.92,258.232
37.922,258.232
37.924,258.232
37.926,258.232
37.928,258.231
37.93,258.231
37.932,258.231
37.934,258.231
37.936,258.23
37.938,258.23
37.94,258.23
37.942,258.23
37.944,258.229
37.946,258.229
37.948,258.229
37.95,258.229
37.952,258.228
37.954,258.228
37.956,258.228
37.958,258.228
37.96,258.227
37.962,258.227
37.964,258.227
37.966,258.227
37.968,258.227
37.97,258.226
37.972,258.226
37.974,258.226
37.976,258.226
37.978,258.225
37.98,258.225
37.982,258.225
37.984,258.225
37.986,258.224
37.988,258.224
37.99,258.224
37.992,258.224
37.994,258.224
37.996,258.223
37.998,258.223
37.999,258.223