File: pb/bose_2007/40nm/xrd/curve_1_fit.dat
35.0,0.826725
35.002,0.829225
35.004,0.831736
35.006,0.834259
35.008,0.836794
35.01,0.839339
35.012,0.841897
35.014,0.844466
35.016,0.847047
35.018,0.849639
35.02,0.852244
35.022,0.85486
35.024,0.857489
35.026,0.860129
35.028,0.862782
35.03,0.865447
35.032,0.868124
35.034,0.870814
35.036,0.873516
35.038,0.87623
35.04,0.878958
35.042,0.881698
35.044,0.88445
35.046,0.887216
35.048,0.889994
35.05,0.892786
35.052,0.89559
35.054,0.898408
35.056,0.901239
35.058,0.904084
35.06,0.906941
35.062,0.909813
35.064,0.912698
35.066,0.915596
35.068,0.918508
35.07,0.921435
35.072,0.924375
35.074,0.927329
35.076,0.930297
35.078,0.93328
35.08,0.936276
35.082,0.939288
35.084,0.942313
35.086,0.945353
35.088,0.948408
35.09,0.951478
35.092,0.954562
35.094,0.957662
35.096,0.960776
35.098,0.963906
35.1,0.967051
35.102,0.970211
35.104,0.973387
35.106,0.976578
35.108,0.979785
35.11,0.983007
35.112,0.986246
35.114,0.9895
35.116,0.99277
35.118,0.996057
35.12,0.99936
35.122,1.00268
35.124,1.00601
35.126,1.00937
35.128,1.01274
35.13,1.01612
35.132,1.01952
35.134,1.02294
35.136,1.02638
35.138,1.02984
35.14,1.03331
35.142,1.0368
35.144,1.0403
35.146,1.04383
35.148,1.04737
35.15,1.05093
35.152,1.05451
35.154,1.0581
35.156,1.06172
35.158,1.06535
35.16,1.069
35.162,1.07267
35.164,1.07636
35.166,1.08007
35.168,1.0838
35.17,1.08754
35.172,1.09131
35.174,1.0951
35.176,1.0989
35.178,1.10273
35.18,1.10657
35.182,1.11044
35.184,1.11432
35.186,1.11823
35.188,1.12215
35.19,1.1261
35.192,1.13006
35.194,1.13405
35.196,1.13806
35.198,1.14209
35.2,1.14614
35.202,1.15021
35.204,1.15431
35.206,1.15843
35.208,1.16256
35.21,1.16672
35.212,1.17091
35.214,1.17511
35.216,1.17934
35.218,1.18359
35.22,1.18786
35.222,1.19216
35.224,1.19648
35.226,1.20082
35.228,1.20518
35.23,1.20957
35.232,1.21399
35.234,1.21843
35.236,1.22289
35.238,1.22737
35.24,1.23189
35.242,1.23642
35.244,1.24098
35.246,1.24557
35.248,1.25018
35.25,1.25481
35.252,1.25948
35.254,1.26417
35.256,1.26888
35.258,1.27362
35.26,1.27839
35.262,1.28318
35.264,1.288
35.266,1.29285
35.268,1.29772
35.27,1.30262
35.272,1.30755
35.274,1.31251
35.276,1.3175
35.278,1.32251
35.28,1.32755
35.282,1.33262
35.284,1.33772
35.286,1.34285
35.288,1.34801
35.29,1.3532
35.292,1.35842
35.294,1.36366
35.296,1.36894
35.298,1.37425
35.3,1.37959
35.302,1.38496
35.304,1.39036
35.306,1.39579
35.308,1.40126
35.31,1.40675
35.312,1.41228
35.314,1.41784
35.316,1.42344
35.318,1.42906
35.32,1.43472
35.322,1.44042
35.324,1.44614
35.326,1.4519
35.328,1.4577
35.33,1.46353
35.332,1.46939
35.334,1.47529
35.336,1.48122
35.338,1.4872
35.34,1.4932
35.342,1.49924
35.344,1.50532
35.346,1.51144
35.348,1.51759
35.35,1.52378
35.352,1.53001
35.354,1.53627
35.356,1.54258
35.358,1.54892
35.36,1.5553
35.362,1.56172
35.364,1.56818
35.366,1.57468
35.368,1.58122
35.37,1.5878
35.372,1.59442
35.374,1.60108
35.376,1.60779
35.378,1.61453
35.38,1.62132
35.382,1.62815
35.384,1.63502
35.386,1.64194
35.388,1.6489
35.39,1.65591
35.392,1.66295
35.394,1.67005
35.396,1.67719
35.398,1.68437
35.4,1.6916
35.402,1.69887
35.404,1.7062
35.406,1.71357
35.408,1.72098
35.41,1.72845
35.412,1.73596
35.414,1.74352
35.416,1.75113
35.418,1.75879
35.42,1.7665
35.422,1.77426
35.424,1.78207
35.426,1.78994
35.428,1.79785
35.43,1.80582
35.432,1.81383
35.434,1.82191
35.436,1.83003
35.438,1.83821
35.44,1.84644
35.442,1.85473
35.444,1.86308
35.446,1.87148
35.448,1.87993
35.45,1.88844
35.452,1.89701
35.454,1.90564
35.456,1.91433
35.458,1.92308
35.46,1.93188
35.462,1.94075
35.464,1.94967
35.466,1.95866
35.468,1.96771
35.47,1.97682
35.472,1.98599
35.474,1.99523
35.476,2.00453
35.478,2.01389
35.48,2.02332
35.482,2.03282
35.484,2.04238
35.486,2.05201
35.488,2.0617
35.49,2.07147
35.492,2.0813
35.494,2.0912
35.496,2.10118
35.498,2.11122
35.5,2.12134
35.502,2.13152
35.504,2.14178
35.506,2.15212
35.508,2.16252
35.51,2.173
35.512,2.18356
35.514,2.1942
35.516,2.20491
35.518,2.2157
35.52,2.22656
35.522,2.23751
35.524,2.24853
35.526,2.25964
35.528,2.27083
35.53,2.2821
35.532,2.29345
35.534,2.30489
35.536,2.31641
35.538,2.32802
35.54,2.33972
35.542,2.3515
35.544,2.36337
35.546,2.37533
35.548,2.38737
35.55,2.39951
35.552,2.41174
35.554,2.42407
35.556,2.43648
35.558,2.449
35.56,2.4616
35.562,2.47431
35.564,2.48711
35.566,2.5
35.568,2.513
35.57,2.5261
35.572,2.5393
35.574,2.5526
35.576,2.56601
35.578,2.57952
35.58,2.59313
35.582,2.60685
35.584,2.62068
35.586,2.63462
35.588,2.64867
35.59,2.66283
35.592,2.6771
35.594,2.69148
35.596,2.70598
35.598,2.7206
35.6,2.73533
35.602,2.75018
35.604,2.76515
35.606,2.78024
35.608,2.79545
35.61,2.81079
35.612,2.82625
35.614,2.84184
35.616,2.85755
35.618,2.87339
35.62,2.88937
35.622,2.90547
35.624,2.92171
35.626,2.93808
35.628,2.95459
35.63,2.97123
35.632,2.98801
35.634,3.00494
35.636,3.022
35.638,3.03921
35.64,3.05657
35.642,3.07407
35.644,3.09172
35.646,3.10952
35.648,3.12747
35.65,3.14557
35.652,3.16383
35.654,3.18224
35.656,3.20082
35.658,3.21955
35.66,3.23845
35.662,3.25751
35.664,3.27673
35.666,3.29613
35.668,3.31569
35.67,3.33543
35.672,3.35534
35.674,3.37542
35.676,3.39568
35.678,3.41612
35.68,3.43675
35.682,3.45755
35.684,3.47855
35.686,3.49973
35.688,3.5211
35.69,3.54266
35.692,3.56442
35.694,3.58638
35.696,3.60853
35.698,3.63089
35.7,3.65345
35.702,3.67622
35.704,3.6992
35.706,3.72239
35.708,3.7458
35.71,3.76942
35.712,3.79326
35.714,3.81732
35.716,3.84161
35.718,3.86612
35.72,3.89087
35.722,3.91585
35.724,3.94107
35.726,3.96652
35.728,3.99222
35.73,4.01816
35.732,4.04435
35.734,4.07079
35.736,4.09749
35.738,4.12444
35.74,4.15165
35.742,4.17913
35.744,4.20688
35.746,4.23489
35.748,4.26318
35.75,4.29175
35.752,4.3206
35.754,4.34974
35.756,4.37916
35.758,4.40888
35.76,4.43889
35.762,4.4692
35.764,4.49982
35.766,4.53074
35.768,4.56198
35.77,4.59353
35.772,4.6254
35.774,4.6576
35.776,4.69013
35.778,4.72298
35.78,4.75618
35.782,4.78972
35.784,4.8236
35.786,4.85784
35.788,4.89243
35.79,4.92738
35.792,4.9627
35.794,4.99839
35.796,5.03445
35.798,5.0709
35.8,5.10773
35.802,5.14495
35.804,5.18257
35.806,5.22059
35.808,5.25902
35.81,5.29786
35.812,5.33713
35.814,5.37681
35.816,5.41693
35.818,5.45749
35.82,5.49848
35.822,5.53993
35.824,5.58183
35.826,5.6242
35.828,5.66704
35.83,5.71035
35.832,5.75414
35.834,5.79842
35.836,5.8432
35.838,5.88848
35.84,5.93428
35.842,5.98059
35.844,6.02742
35.846,6.0748
35.848,6.12271
35.85,6.17117
35.852,6.22019
35.854,6.26978
35.856,6.31994
35.858,6.37068
35.86,6.42201
35.862,6.47395
35.864,6.52649
35.866,6.57965
35.868,6.63344
35.87,6.68787
35.872,6.74294
35.874,6.79867
35.876,6.85507
35.878,6.91214
35.88,6.9699
35.882,7.02836
35.884,7.08753
35.886,7.14742
35.888,7.20804
35.89,7.2694
35.892,7.33152
35.894,7.3944
35.896,7.45806
35.898,7.52251
35.9,7.58776
35.902,7.65383
35.904,7.72072
35.906,7.78846
35.908,7.85705
35.91,7.92651
35.912,7.99685
35.914,8.06809
35.916,8.14024
35.918,8.21332
35.92,8.28734
35.922,8.36231
35.924,8.43825
35.926,8.51519
35.928,8.59312
35.93,8.67208
35.932,8.75207
35.934,8.83312
35.936,8.91524
35.938,8.99845
35.94,9.08277
35.942,9.16822
35.944,9.25481
35.946,9.34256
35.948,9.4315
35.95,9.52164
35.952,9.61301
35.954,9.70562
35.956,9.7995
35.958,9.89466
35.96,9.99114
35.962,10.0889
35.964,10.1881
35.966,10.2887
35.968,10.3906
35.97,10.494
35.972,10.5988
35.974,10.7051
35.976,10.8129
35.978,10.9222
35.98,11.0331
35.982,11.1455
35.984,11.2596
35.986,11.3753
35.988,11.4927
35.99,11.6118
35.992,11.7326
35.994,11.8551
35.996,11.9795
35.998,12.1056
36,12.2336
36.002,12.3635
36.004,12.4953
36.006,12.6291
36.008,12.7648
36.01,12.9026
36.012,13.0424
36.014,13.1843
36.016,13.3284
36.018,13.4746
36.02,13.623
36.022,13.7737
36.024,13.9267
36.026,14.082
36.028,14.2397
36.03,14.3997
36.032,14.5623
36.034,14.7273
36.036,14.8949
36.038,15.0651
36.04,15.2379
36.042,15.4134
36.044,15.5917
36.046,15.7727
36.048,15.9565
36.05,16.1433
36.052,16.3329
36.054,16.5256
36.056,16.7213
36.058,16.9201
36.06,17.122
36.062,17.3272
36.064,17.5356
36.066,17.7473
36.068,17.9624
36.07,18.181
36.072,18.403
36.074,18.6286
36.076,18.8578
36.078,19.0907
36.08,19.3273
36.082,19.5677
36.084,19.812
36.086,20.0602
36.088,20.3125
36.09,20.5688
36.092,20.8292
36.094,21.0938
36.096,21.3627
36.098,21.6359
36.1,21.9135
36.102,22.1956
36.104,22.4822
36.106,22.7734
36.108,23.0693
36.11,23.37
36.112,23.6754
36.114,23.9858
36.116,24.3011
36.118,24.6214
36.12,24.9468
36.122,25.2773
36.124,25.6131
36.126,25.9541
36.128,26.3005
36.13,26.6523
36.132,27.0096
36.134,27.3724
36.136,27.7408
36.138,28.1149
36.14,28.4946
36.142,28.8801
36.144,29.2713
36.146,29.6685
36.148,30.0715
36.15,30.4804
36.152,30.8952
36.154,31.3161
36.156,31.7429
36.158,32.1758
36.16,32.6147
36.162,33.0596
36.164,33.5106
36.166,33.9676
36.168,34.4307
36.17,34.8997
36.172,35.3748
36.174,35.8558
36.176,36.3426
36.178,36.8353
36.18,37.3338
36.182,37.838
36.184,38.3477
36.186,38.863
36.188,39.3837
36.19,39.9096
36.192,40.4406
36.194,40.9766
36.196,41.5173
36.198,42.0627
36.2,42.6124
36.202,43.1663
36.204,43.7242
36.206,44.2857
36.208,44.8505
36.21,45.4185
36.212,45.9893
36.214,46.5625
36.216,47.1377
36.218,47.7147
36.22,48.2929
36.222,48.872
36.224,49.4516
36.226,50.031
36.228,50.61
36.23,51.1878
36.232,51.7641
36.234,52.3382
36.236,52.9096
36.238,53.4776
36.24,54.0417
36.242,54.6011
36.244,55.1553
36.246,55.7036
36.248,56.2452
36.25,56.7795
36.252,57.3057
36.254,57.8231
36.256,58.3309
36.258,58.8284
36.26,59.3149
36.262,59.7896
36.264,60.2516
36.266,60.7003
36.268,61.1349
36.27,61.5546
36.272,61.9587
36.274,62.3464
36.276,62.7171
36.278,63.07
36.28,63.4045
36.282,63.7199
36.284,64.0157
36.286,64.2911
36.288,64.5456
36.29,64.7788
36.292,64.9901
36.294,65.179
36.296,65.3453
36.298,65.4885
36.3,65.6083
36.302,65.7044
36.304,65.7767
36.306,65.825
36.308,65.8492
36.31,65.8492
36.312,65.825
36.314,65.7767
36.316,65.7044
36.318,65.6083
36.32,65.4885
36.322,65.3453
36.324,65.179
36.326,64.9901
36.328,64.7788
36.33,64.5456
36.332,64.2911
36.334,64.0157
36.336,63.7199
36.338,63.4045
36.34,63.07
36.342,62.7171
36.344,62.3464
36.346,61.9587
36.348,61.5546
36.35,61.1349
36.352,60.7003
36.354,60.2516
36.356,59.7896
36.358,59.3149
36.36,58.8284
36.362,58.3309
36.364,57.8231
36.366,57.3057
36.368,56.7795
36.37,56.2452
36.372,55.7036
36.374,55.1553
36.376,54.6011
36.378,54.0417
36.38,53.4776
36.382,52.9096
36.384,52.3382
36.386,51.7641
36.388,51.1878
36.39,50.61
36.392,50.031
36.394,49.4516
36.396,48.872
36.398,48.2929
36.4,47.7147
36.402,47.1377
36.404,46.5625
36.406,45.9893
36.408,45.4185
36.41,44.8505
36.412,44.2857
36.414,43.7242
36.416,43.1663
36.418,42.6124
36.42,42.0627
36.422,41.5173
36.424,40.9766
36.426,40.4406
36.428,39.9096
36.43,39.3837
36.432,38.863
36.434,38.3477
36.436,37.838
36.438,37.3338
36.44,36.8353
36.442,36.3426
36.444,35.8558
36.446,35.3748
36.448,34.8997
36.45,34.4307
36.452,33.9676
36.454,33.5106
36.456,33.0596
36.458,32.6147
36.46,32.1758
36.462,31.7429
36.464,31.3161
36.466,30.8952
36.468,30.4804
36.47,30.0715
36.472,29.6685
36.474,29.2713
36.476,28.8801
36.478,28.4946
36.48,28.1149
36.482,27.7408
36.484,27.3724
36.486,27.0096
36.488,26.6523
36.49,26.3005
36.492,25.9541
36.494,25.6131
36.496,25.2773
36.498,24.9468
36.5,24.6214
36.502,24.3011
36.504,23.9858
36.506,23.6754
36.508,23.37
36.51,23.0693
36.512,22.7734
36.514,22.4822
36.516,22.1956
36.518,21.9135
36.52,21.6359
36.522,21.3627
36.524,21.0938
36.526,20.8292
36.528,20.5688
36.53,20.3125
36.532,20.0602
36.534,19.812
36.536,19.5677
36.538,19.3273
36.54,19.0907
36.542,18.8578
36.544,18.6286
36.546,18.403
36.548,18.181
36.55,17.9624
36.552,17.7473
36.554,17.5356
36.556,17.3272
36.558,17.122
36.56,16.9201
36.562,16.7213
36.564,16.5256
36.566,16.3329
36.568,16.1433
36.57,15.9565
36.572,15.7727
36.574,15.5917
36.576,15.4134
36.578,15.2379
36.58,15.0651
36.582,14.8949
36.584,14.7273
36.586,14.5623
36.588,14.3997
36.59,14.2397
36.592,14.082
36.594,13.9267
36.596,13.7737
36.598,13.623
36.6,13.4746
36.602,13.3284
36.604,13.1843
36.606,13.0424
36.608,12.9026
36.61,12.7648
36.612,12.6291
36.614,12.4953
36.616,12.3635
36.618,12.2336
36.62,12.1056
36.622,11.9795
36.624,11.8551
36.626,11.7326
36.628,11.6118
36.63,11.4927
36.632,11.3753
36.634,11.2596
36.636,11.1455
36.638,11.0331
36.64,10.9222
36.642,10.8129
36.644,10.7051
36.646,10.5988
36.648,10.494
36.65,10.3906
36.652,10.2887
36.654,10.1881
36.656,10.0889
36.658,9.99114
36.66,9.89466
36.662,9.7995
36.664,9.70562
36.666,9.61301
36.668,9.52164
36.67,9.4315
36.672,9.34256
36.674,9.25481
36.676,9.16822
36.678,9.08277
36.68,8.99845
36.682,8.91524
36.684,8.83312
36.686,8.75207
36.688,8.67208
36.69,8.59312
36.692,8.51519
36.694,8.43825
36.696,8.36231
36.698,8.28734
36.7,8.21332
36.702,8.14024
36.704,8.06809
36.706,7.99685
36.708,7.92651
36.71,7.85705
36.712,7.78846
36.714,7.72072
36.716,7.65383
36.718,7.58776
36.72,7.52251
36.722,7.45806
36.724,7.3944
36.726,7.33152
36.728,7.2694
36.73,7.20804
36.732,7.14742
36.734,7.08753
36.736,7.02836
36.738,6.9699
36.74,6.91214
36.742,6.85507
36.744,6.79867
36.746,6.74294
36.748,6.68787
36.75,6.63344
36.752,6.57965
36.754,6.52649
36.756,6.47395
36.758,6.42201
36.76,6.37068
36.762,6.31994
36.764,6.26978
36.766,6.22019
36.768,6.17117
36.77,6.12271
36.772,6.0748
36.774,6.02742
36.776,5.98059
36.778,5.93428
36.78,5.88848
36.782,5.8432
36.784,5.79842
36.786,5.75414
36.788,5.71035
36.79,5.66704
36.792,5.6242
36.794,5.58183
36.796,5.53993
36.798,5.49848
36.8,5.45749
36.802,5.41693
36.804,5.37681
36.806,5.33713
36.808,5.29786
36.81,5.25902
36.812,5.22059
36.814,5.18257
36.816,5.14495
36.818,5.10773
36.82,5.0709
36.822,5.03445
36.824,4.99839
36.826,4.9627
36.828,4.92738
36.83,4.89243
36.832,4.85784
36.834,4.8236
36.836,4.78972
36.838,4.75618
36.84,4.72298
36.842,4.69013
36.844,4.6576
36.846,4.6254
36.848,4.59353
36.85,4.56198
36.852,4.53074
36.854,4.49982
36.856,4.4692
36.858,4.43889
36.86,4.40888
36.862,4.37916
36.864,4.34974
36.866,4.3206
36.868,4.29175
36.87,4.26318
36.872,4.23489
36.874,4.20688
36.876,4.17913
36.878,4.15165
36.88,4.12444
36.882,4.09749
36.884,4.07079
36.886,4.04435
36.888,4.01816
36.89,3.99222
36.892,3.96652
36.894,3.94107
36.896,3.91585
36.898,3.89087
36.9,3.86612
36.902,3.84161
36.904,3.81732
36.906,3.79326
36.908,3.76942
36.91,3.7458
36.912,3.72239
36.914,3.6992
36.916,3.67622
36.918,3.65345
36.92,3.63089
36.922,3.60853
36.924,3.58638
36.926,3.56442
36.928,3.54266
36.93,3.5211
36.932,3.49973
36.934,3.47855
36.936,3.45755
36.938,3.43675
36.94,3.41612
36.942,3.39568
36.944,3.37542
36.946,3.35534
36.948,3.33543
36.95,3.31569
36.952,3.29613
36.954,3.27673
36.956,3.25751
36.958,3.23845
36.96,3.21955
36.962,3.20082
36.964,3.18224
36.966,3.16383
36.968,3.14557
36.97,3.12747
36.972,3.10952
36.974,3.09172
36.976,3.07407
36.978,3.05657
36.98,3.03921
36.982,3.022
36.984,3.00494
36.986,2.98801
36.988,2.97123
36.99,2.95459
36.992,2.93808
36.994,2.92171
36.996,2.90547
36.998,2.88937
37,2.87339
37.002,2.85755
37.004,2.84184
37.006,2.82625
37.008,2.81079
37.01,2.79545
37.012,2.78024
37.014,2.76515
37.016,2.75018
37.018,2.73533
37.02,2.7206
37.022,2.70598
37.024,2.69148
37.026,2.6771
37.028,2.66283
37.03,2.64867
37.032,2.63462
37.034,2.62068
37.036,2.60685
37.038,2.59313
37.04,2.57952
37.042,2.56601
37.044,2.5526
37.046,2.5393
37.048,2.5261
37.05,2.513
37.052,2.5
37.054,2.48711
37.056,2.47431
37.058,2.4616
37.06,2.449
37.062,2.43648
37.064,2.42407
37.066,2.41174
37.068,2.39951
37.07,2.38737
37.072,2.37533
37.074,2.36337
37.076,2.3515
37.078,2.33972
37.08,2.32802
37.082,2.31641
37.084,2.30489
37.086,2.29345
37.088,2.2821
37.09,2.27083
37.092,2.25964
37.094,2.24853
37.096,2.23751
37.098,2.22656
37.1,2.2157
37.102,2.20491
37.104,2.1942
37.106,2.18356
37.108,2.173
37.11,2.16252
37.112,2.15212
37.114,2.14178
37.116,2.13152
37.118,2.12134
37.12,2.11122
37.122,2.10118
37.124,2.0912
37.126,2.0813
37.128,2.07147
37.13,2.0617
37.132,2.05201
37.134,2.04238
37.136,2.03282
37.138,2.02332
37.14,2.01389
37.142,2.00453
37.144,1.99523
37.146,1.98599
37.148,1.97682
37.15,1.96771
37.152,1.95866
37.154,1.94967
37.156,1.94075
37.158,1.93188
37.16,1.92308
37.162,1.91433
37.164,1.90564
37.166,1.89701
37.168,1.88844
37.17,1.87993
37.172,1.87148
37.174,1.86308
37.176,1.85473
37.178,1.84644
37.18,1.83821
37.182,1.83003
37.184,1.82191
37.186,1.81383
37.188,1.80582
37.19,1.79785
37.192,1.78994
37.194,1.78207
37.196,1.77426
37.198,1.7665
37.2,1.75879
37.202,1.75113
37.204,1.74352
37.206,1.73596
37.208,1.72845
37.21,1.72098
37.212,1.71357
37.214,1.7062
37.216,1.69887
37.218,1.6916
37.22,1.68437
37.222,1.67719
37.224,1.67005
37.226,1.66295
37.228,1.65591
37.23,1.6489
37.232,1.64194
37.234,1.63502
37.236,1.62815
37.238,1.62132
37.24,1.61453
37.242,1.60779
37.244,1.60108
37.246,1.59442
37.248,1.5878
37.25,1.58122
37.252,1.57468
37.254,1.56818
37.256,1.56172
37.258,1.5553
37.26,1.54892
37.262,1.54258
37.264,1.53627
37.266,1.53001
37.268,1.52378
37.27,1.51759
37.272,1.51144
37.274,1.50532
37.276,1.49924
37.278,1.4932
37.28,1.4872
37.282,1.48122
37.284,1.47529
37.286,1.46939
37.288,1.46353
37.29,1.4577
37.292,1.4519
37.294,1.44614
37.296,1.44042
37.298,1.43472
37.3,1.42906
37.302,1.42344
37.304,1.41784
37.306,1.41228
37.308,1.40675
37.31,1.40126
37.312,1.39579
37.314,1.39036
37.316,1.38496
37.318,1.37959
37.32,1.37425
37.322,1.36894
37.324,1.36366
37.326,1.35842
37.328,1.3532
37.33,1.34801
37.332,1.34285
37.334,1.33772
37.336,1.33262
37.338,1.32755
37.34,1.32251
37.342,1.3175
37.344,1.31251
37.346,1.30755
37.348,1.30262
37.35,1.29772
37.352,1.29285
37.354,1.288
37.356,1.28318
37.358,1.27839
37.36,1.27362
37.362,1.26888
37.364,1.26417
37.366,1.25948
37.368,1.25481
37.37,1.25018
37.372,1.24557
37.374,1.24098
37.376,1.23642
37.378,1.23189
37.38,1.22737
37.382,1.22289
37.384,1.21843
37.386,1.21399
37.388,1.20957
37.39,1.20518
37.392,1.20082
37.394,1.19648
37.396,1.19216
37.398,1.18786
37.4,1.18359
37.402,1.17934
37.404,1.17511
37.406,1.17091
37.408,1.16672
37.41,1.16256
37.412,1.15843
37.414,1.15431
37.416,1.15021
37.418,1.14614
37.42,1.14209
37.422,1.13806
37.424,1.13405
37.426,1.13006
37.428,1.1261
37.43,1.12215
37.432,1.11823
37.434,1.11432
37.436,1.11044
37.438,1.10657
37.44,1.10273
37.442,1.0989
37.444,1.0951
37.446,1.09131
37.448,1.08754
37.45,1.0838
37.452,1.08007
37.454,1.07636
37.456,1.07267
37.458,1.069
37.46,1.06535
37.462,1.06172
37.464,1.0581
37.466,1.05451
37.468,1.05093
37.47,1.04737
37.472,1.04383
37.474,1.0403
37.476,1.0368
37.478,1.03331
37.48,1.02984
37.482,1.02638
37.484,1.02294
37.486,1.01952
37.488,1.01612
37.49,1.01274
37.492,1.00937
37.494,1.00601
37.496,1.00268
37.498,0.99936
37.5,0.996057
37.502,0.99277
37.504,0.9895
37.506,0.986246
37.508,0.983007
37.51,0.979785
37.512,0.976578
37.514,0.973387
37.516,0.970211
37.518,0.967051
37.52,0.963906
37.522,0.960776
37.524,0.957662
37.526,0.954562
37.528,0.951478
37.53,0.948408
37.532,0.945353
37.534,0.942313
37.536,0.939288
37.538,0.936276
37.54,0.93328
37.542,0.930297
37.544,0.927329
37.546,0.924375
37.548,0.921435
37.55,0.918508
37.552,0.915596
37.554,0.912698
37.556,0.909813
37.558,0.906941
37.56,0.904084
37.562,0.901239
37.564,0.898408
37.566,0.89559
37.568,0.892786
37.57,0.889994
37.572,0.887216
37.574,0.88445
37.576,0.881698
37.578,0.878958
37.58,0.87623
37.582,0.873516
37.584,0.870814
37.586,0.868124
37.588,0.865447
37.59,0.862782
37.592,0.860129
37.594,0.857489
37.596,0.85486
37.598,0.852244
37.6,0.849639
37.602,0.847047
37.604,0.844466
37.606,0.841897
37.608,0.839339
37.61,0.836794
37.612,0.834259
37.614,0.831736
37.616,0.829225
37.618,0.826725
37.62,0.824236
37.622,0.821758
37.624,0.819291
37.626,0.816836
37.628,0.814391
37.63,0.811957
37.632,0.809534
37.634,0.807122
37.636,0.804721
37.638,0.80233
37.64,0.79995
37.642,0.79758
37.644,0.795221
37.646,0.792873
37.648,0.790534
37.65,0.788206
37.652,0.785888
37.654,0.783581
37.656,0.781283
37.658,0.778995
37.66,0.776718
37.662,0.77445
37.664,0.772193
37.666,0.769945
37.668,0.767707
37.67,0.765478
37.672,0.763259
37.674,0.76105
37.676,0.75885
37.678,0.75666
37.68,0.75448
37.682,0.752308
37.684,0.750146
37.686,0.747993
37.688,0.74585
37.69,0.743716
37.692,0.74159
37.694,0.739474
37.696,0.737367
37.698,0.735269
37.7,0.733179
37.702,0.731099
37.704,0.729027
37.706,0.726964
37.708,0.72491
37.71,0.722865
37.712,0.720828
37.714,0.718799
37.716,0.71678
37.718,0.714768
37.72,0.712765
37.722,0.710771
37.724,0.708785
37.726,0.706807
37.728,0.704837
37.73,0.702875
37.732,0.700922
37.734,0.698977
37.736,0.69704
37.738,0.69511
37.74,0.693189
37.742,0.691276
37.744,0.689371
37.746,0.687473
37.748,0.685583
37.75,0.683701
37.752,0.681827
37.754,0.67996
37.756,0.678101
37.758,0.67625
37.76,0.674406
37.762,0.67257
37.764,0.670741
37.766,0.668919
37.768,0.667105
37.77,0.665298
37.772,0.663499
37.774,0.661707
37.776,0.659922
37.778,0.658144
37.78,0.656374
37.782,0.65461
37.784,0.652854
37.786,0.651104
37.788,0.649362
37.79,0.647626
37.792,0.645898
37.794,0.644176
37.796,0.642462
37.798,0.640754
37.8,0.639052
37.802,0.637358
37.804,0.63567
37.806,0.633989
37.808,0.632315
37.81,0.630647
37.812,0.628986
37.814,0.627331
37.816,0.625683
37.818,0.624041
37.82,0.622406
37.822,0.620777
37.824,0.619154
37.826,0.617538
37.828,0.615928
37.83,0.614325
37.832,0.612727
37.834,0.611136
37.836,0.609551
37.838,0.607972
37.84,0.606399
37.842,0.604833
37.844,0.603272
37.846,0.601717
37.848,0.600169
37.85,0.598626
37.852,0.597089
37.854,0.595558
37.856,0.594033
37.858,0.592514
37.86,0.591001
37.862,0.589493
37.864,0.587991
37.866,0.586495
37.868,0.585005
37.87,0.58352
37.872,0.582041
37.874,0.580567
37.876,0.579099
37.878,0.577637
37.88,0.57618
37.882,0.574728
37.884,0.573282
37.886,0.571842
37.888,0.570406
37.89,0.568977
37.892,0.567552
37.894,0.566133
37.896,0.564719
37.898,0.563311
37.9,0.561908
37.902,0.56051
37.904,0.559117
37.906,0.557729
37.908,0.556346
37.91,0.554969
37.912,0.553597
37.914,0.552229
37.916,0.550867
37.918,0.54951
37.92,0.548158
37.922,0.546811
37.924,0.545468
37.926,0.544131
37.928,0.542798
37.93,0.541471
37.932,0.540148
37.934,0.53883
37.936,0.537517
37.938,0.536209
37.94,0.534905
37.942,0.533606
37.944,0.532312
37.946,0.531023
37.948,0.529738
37.95,0.528458
37.952,0.527183
37.954,0.525912
37.956,0.524645
37.958,0.523384
37.96,0.522126
37.962,0.520874
37.964,0.519625
37.966,0.518382
37.968,0.517142
37.97,0.515908
37.972,0.514677
37.974,0.513451
37.976,0.512229
37.978,0.511012
37.98,0.509799
37.982,0.50859
37.984,0.507386
37.986,0.506185
37.988,0.504989
37.99,0.503798
37.992,0.50261
37.994,0.501427
37.996,0.500248
37.998,0.499073
37.999,0.498487