File: pb/bose_2007/40nm/xrd/curve_total_fit.dat
35.0,468.827
35.002,468.829
35.004,468.832
35.006,468.834
35.008,468.837
35.01,468.839
35.012,468.842
35.014,468.844
35.016,468.847
35.018,468.85
35.02,468.852
35.022,468.855
35.024,468.857
35.026,468.86
35.028,468.863
35.03,468.865
35.032,468.868
35.034,468.871
35.036,468.874
35.038,468.876
35.04,468.879
35.042,468.882
35.044,468.884
35.046,468.887
35.048,468.89
35.05,468.893
35.052,468.896
35.054,468.898
35.056,468.901
35.058,468.904
35.06,468.907
35.062,468.91
35.064,468.913
35.066,468.916
35.068,468.919
35.07,468.921
35.072,468.924
35.074,468.927
35.076,468.93
35.078,468.933
35.08,468.936
35.082,468.939
35.084,468.942
35.086,468.945
35.088,468.948
35.09,468.951
35.092,468.955
35.094,468.958
35.096,468.961
35.098,468.964
35.1,468.967
35.102,468.97
35.104,468.973
35.106,468.977
35.108,468.98
35.11,468.983
35.112,468.986
35.114,468.99
35.116,468.993
35.118,468.996
35.12,468.999
35.122,469.003
35.124,469.006
35.126,469.009
35.128,469.013
35.13,469.016
35.132,469.02
35.134,469.023
35.136,469.026
35.138,469.03
35.14,469.033
35.142,469.037
35.144,469.04
35.146,469.044
35.148,469.047
35.15,469.051
35.152,469.055
35.154,469.058
35.156,469.062
35.158,469.065
35.16,469.069
35.162,469.073
35.164,469.076
35.166,469.08
35.168,469.084
35.17,469.088
35.172,469.091
35.174,469.095
35.176,469.099
35.178,469.103
35.18,469.107
35.182,469.11
35.184,469.114
35.186,469.118
35.188,469.122
35.19,469.126
35.192,469.13
35.194,469.134
35.196,469.138
35.198,469.142
35.2,469.146
35.202,469.15
35.204,469.154
35.206,469.158
35.208,469.163
35.21,469.167
35.212,469.171
35.214,469.175
35.216,469.179
35.218,469.184
35.22,469.188
35.222,469.192
35.224,469.196
35.226,469.201
35.228,469.205
35.23,469.21
35.232,469.214
35.234,469.218
35.236,469.223
35.238,469.227
35.24,469.232
35.242,469.236
35.244,469.241
35.246,469.246
35.248,469.25
35.25,469.255
35.252,469.259
35.254,469.264
35.256,469.269
35.258,469.274
35.26,469.278
35.262,469.283
35.264,469.288
35.266,469.293
35.268,469.298
35.27,469.303
35.272,469.308
35.274,469.313
35.276,469.317
35.278,469.323
35.28,469.328
35.282,469.333
35.284,469.338
35.286,469.343
35.288,469.348
35.29,469.353
35.292,469.358
35.294,469.364
35.296,469.369
35.298,469.374
35.3,469.38
35.302,469.385
35.304,469.39
35.306,469.396
35.308,469.401
35.31,469.407
35.312,469.412
35.314,469.418
35.316,469.423
35.318,469.429
35.32,469.435
35.322,469.44
35.324,469.446
35.326,469.452
35.328,469.458
35.33,469.464
35.332,469.469
35.334,469.475
35.336,469.481
35.338,469.487
35.34,469.493
35.342,469.499
35.344,469.505
35.346,469.511
35.348,469.518
35.35,469.524
35.352,469.53
35.354,469.536
35.356,469.543
35.358,469.549
35.36,469.555
35.362,469.562
35.364,469.568
35.366,469.575
35.368,469.581
35.37,469.588
35.372,469.594
35.374,469.601
35.376,469.608
35.378,469.615
35.38,469.621
35.382,469.628
35.384,469.635
35.386,469.642
35.388,469.649
35.39,469.656
35.392,469.663
35.394,469.67
35.396,469.677
35.398,469.684
35.4,469.692
35.402,469.699
35.404,469.706
35.406,469.714
35.408,469.721
35.41,469.728
35.412,469.736
35.414,469.744
35.416,469.751
35.418,469.759
35.42,469.767
35.422,469.774
35.424,469.782
35.426,469.79
35.428,469.798
35.43,469.806
35.432,469.814
35.434,469.822
35.436,469.83
35.438,469.838
35.44,469.846
35.442,469.855
35.444,469.863
35.446,469.871
35.448,469.88
35.45,469.888
35.452,469.897
35.454,469.906
35.456,469.914
35.458,469.923
35.46,469.932
35.462,469.941
35.464,469.95
35.466,469.959
35.468,469.968
35.47,469.977
35.472,469.986
35.474,469.995
35.476,470.005
35.478,470.014
35.48,470.023
35.482,470.033
35.484,470.042
35.486,470.052
35.488,470.062
35.49,470.071
35.492,470.081
35.494,470.091
35.496,470.101
35.498,470.111
35.5,470.121
35.502,470.132
35.504,470.142
35.506,470.152
35.508,470.163
35.51,470.173
35.512,470.184
35.514,470.194
35.516,470.205
35.518,470.216
35.52,470.227
35.522,470.238
35.524,470.249
35.526,470.26
35.528,470.271
35.53,470.282
35.532,470.293
35.534,470.305
35.536,470.316
35.538,470.328
35.54,470.34
35.542,470.351
35.544,470.363
35.546,470.375
35.548,470.387
35.55,470.4
35.552,470.412
35.554,470.424
35.556,470.436
35.558,470.449
35.56,470.462
35.562,470.474
35.564,470.487
35.566,470.5
35.568,470.513
35.57,470.526
35.572,470.539
35.574,470.553
35.576,470.566
35.578,470.58
35.58,470.593
35.582,470.607
35.584,470.621
35.586,470.635
35.588,470.649
35.59,470.663
35.592,470.677
35.594,470.691
35.596,470.706
35.598,470.721
35.6,470.735
35.602,470.75
35.604,470.765
35.606,470.78
35.608,470.795
35.61,470.811
35.612,470.826
35.614,470.842
35.616,470.858
35.618,470.873
35.62,470.889
35.622,470.905
35.624,470.922
35.626,470.938
35.628,470.955
35.63,470.971
35.632,470.988
35.634,471.005
35.636,471.022
35.638,471.039
35.64,471.057
35.642,471.074
35.644,471.092
35.646,471.11
35.648,471.127
35.65,471.146
35.652,471.164
35.654,471.182
35.656,471.201
35.658,471.22
35.66,471.238
35.662,471.258
35.664,471.277
35.666,471.296
35.668,471.316
35.67,471.335
35.672,471.355
35.674,471.375
35.676,471.396
35.678,471.416
35.68,471.437
35.682,471.458
35.684,471.479
35.686,471.5
35.688,471.521
35.69,471.543
35.692,471.564
35.694,471.586
35.696,471.609
35.698,471.631
35.7,471.653
35.702,471.676
35.704,471.699
35.706,471.722
35.708,471.746
35.71,471.769
35.712,471.793
35.714,471.817
35.716,471.842
35.718,471.866
35.72,471.891
35.722,471.916
35.724,471.941
35.726,471.967
35.728,471.992
35.73,472.018
35.732,472.044
35.734,472.071
35.736,472.097
35.738,472.124
35.74,472.152
35.742,472.179
35.744,472.207
35.746,472.235
35.748,472.263
35.75,472.292
35.752,472.321
35.754,472.35
35.756,472.379
35.758,472.409
35.76,472.439
35.762,472.469
35.764,472.5
35.766,472.531
35.768,472.562
35.77,472.594
35.772,472.625
35.774,472.658
35.776,472.69
35.778,472.723
35.78,472.756
35.782,472.79
35.784,472.824
35.786,472.858
35.788,472.892
35.79,472.927
35.792,472.963
35.794,472.998
35.796,473.034
35.798,473.071
35.8,473.108
35.802,473.145
35.804,473.183
35.806,473.221
35.808,473.259
35.81,473.298
35.812,473.337
35.814,473.377
35.816,473.417
35.818,473.457
35.82,473.498
35.822,473.54
35.824,473.582
35.826,473.624
35.828,473.667
35.83,473.71
35.832,473.754
35.834,473.798
35.836,473.843
35.838,473.888
35.84,473.934
35.842,473.981
35.844,474.027
35.846,474.075
35.848,474.123
35.85,474.171
35.852,474.22
35.854,474.27
35.856,474.32
35.858,474.371
35.86,474.422
35.862,474.474
35.864,474.526
35.866,474.58
35.868,474.633
35.87,474.688
35.872,474.743
35.874,474.799
35.876,474.855
35.878,474.912
35.88,474.97
35.882,475.028
35.884,475.088
35.886,475.147
35.888,475.208
35.89,475.269
35.892,475.332
35.894,475.394
35.896,475.458
35.898,475.523
35.9,475.588
35.902,475.654
35.904,475.721
35.906,475.788
35.908,475.857
35.91,475.927
35.912,475.997
35.914,476.068
35.916,476.14
35.918,476.213
35.92,476.287
35.922,476.362
35.924,476.438
35.926,476.515
35.928,476.593
35.93,476.672
35.932,476.752
35.934,476.833
35.936,476.915
35.938,476.998
35.94,477.083
35.942,477.168
35.944,477.255
35.946,477.343
35.948,477.431
35.95,477.522
35.952,477.613
35.954,477.706
35.956,477.799
35.958,477.895
35.96,477.991
35.962,478.089
35.964,478.188
35.966,478.289
35.968,478.391
35.97,478.494
35.972,478.599
35.974,478.705
35.976,478.813
35.978,478.922
35.98,479.033
35.982,479.146
35.984,479.26
35.986,479.375
35.988,479.493
35.99,479.612
35.992,479.733
35.994,479.855
35.996,479.979
35.998,480.106
36,480.234
36.002,480.364
36.004,480.495
36.006,480.629
36.008,480.765
36.01,480.903
36.012,481.042
36.014,481.184
36.016,481.328
36.018,481.475
36.02,481.623
36.022,481.774
36.024,481.927
36.026,482.082
36.028,482.24
36.03,482.4
36.032,482.562
36.034,482.727
36.036,482.895
36.038,483.065
36.04,483.238
36.042,483.413
36.044,483.592
36.046,483.773
36.048,483.957
36.05,484.143
36.052,484.333
36.054,484.526
36.056,484.721
36.058,484.92
36.06,485.122
36.062,485.327
36.064,485.536
36.066,485.747
36.068,485.962
36.07,486.181
36.072,486.403
36.074,486.629
36.076,486.858
36.078,487.091
36.08,487.327
36.082,487.568
36.084,487.812
36.086,488.06
36.088,488.312
36.09,488.569
36.092,488.829
36.094,489.094
36.096,489.363
36.098,489.636
36.1,489.913
36.102,490.196
36.104,490.482
36.106,490.773
36.108,491.069
36.11,491.37
36.112,491.675
36.114,491.986
36.116,492.301
36.118,492.621
36.12,492.947
36.122,493.277
36.124,493.613
36.126,493.954
36.128,494.301
36.13,494.652
36.132,495.01
36.134,495.372
36.136,495.741
36.138,496.115
36.14,496.495
36.142,496.88
36.144,497.271
36.146,497.668
36.148,498.071
36.15,498.48
36.152,498.895
36.154,499.316
36.156,499.743
36.158,500.176
36.16,500.615
36.162,501.06
36.164,501.511
36.166,501.968
36.168,502.431
36.17,502.9
36.172,503.375
36.174,503.856
36.176,504.343
36.178,504.835
36.18,505.334
36.182,505.838
36.184,506.348
36.186,506.863
36.188,507.384
36.19,507.91
36.192,508.441
36.194,508.977
36.196,509.517
36.198,510.063
36.2,510.612
36.202,511.166
36.204,511.724
36.206,512.286
36.208,512.851
36.21,513.419
36.212,513.989
36.214,514.562
36.216,515.138
36.218,515.715
36.22,516.293
36.222,516.872
36.224,517.452
36.226,518.031
36.228,518.61
36.23,519.188
36.232,519.764
36.234,520.338
36.236,520.91
36.238,521.478
36.24,522.042
36.242,522.601
36.244,523.155
36.246,523.704
36.248,524.245
36.25,524.779
36.252,525.306
36.254,525.823
36.256,526.331
36.258,526.828
36.26,527.315
36.262,527.79
36.264,528.252
36.266,528.7
36.268,529.135
36.27,529.555
36.272,529.959
36.274,530.346
36.276,530.717
36.278,531.07
36.28,531.405
36.282,531.72
36.284,532.016
36.286,532.291
36.288,532.546
36.29,532.779
36.292,532.99
36.294,533.179
36.296,533.345
36.298,533.488
36.3,533.608
36.302,533.704
36.304,533.777
36.306,533.825
36.308,533.849
36.31,533.849
36.312,533.825
36.314,533.777
36.316,533.704
36.318,533.608
36.32,533.488
36.322,533.345
36.324,533.179
36.326,532.99
36.328,532.779
36.33,532.546
36.332,532.291
36.334,532.016
36.336,531.72
36.338,531.405
36.34,531.07
36.342,530.717
36.344,530.346
36.346,529.959
36.348,529.555
36.35,529.135
36.352,528.7
36.354,528.252
36.356,527.79
36.358,527.315
36.36,526.828
36.362,526.331
36.364,525.823
36.366,525.306
36.368,524.779
36.37,524.245
36.372,523.704
36.374,523.155
36.376,522.601
36.378,522.042
36.38,521.478
36.382,520.91
36.384,520.338
36.386,519.764
36.388,519.188
36.39,518.61
36.392,518.031
36.394,517.452
36.396,516.872
36.398,516.293
36.4,515.715
36.402,515.138
36.404,514.562
36.406,513.989
36.408,513.419
36.41,512.851
36.412,512.286
36.414,511.724
36.416,511.166
36.418,510.612
36.42,510.063
36.422,509.517
36.424,508.977
36.426,508.441
36.428,507.91
36.43,507.384
36.432,506.863
36.434,506.348
36.436,505.838
36.438,505.334
36.44,504.835
36.442,504.343
36.444,503.856
36.446,503.375
36.448,502.9
36.45,502.431
36.452,501.968
36.454,501.511
36.456,501.06
36.458,500.615
36.46,500.176
36.462,499.743
36.464,499.316
36.466,498.895
36.468,498.48
36.47,498.071
36.472,497.668
36.474,497.271
36.476,496.88
36.478,496.495
36.48,496.115
36.482,495.741
36.484,495.372
36.486,495.01
36.488,494.652
36.49,494.301
36.492,493.954
36.494,493.613
36.496,493.277
36.498,492.947
36.5,492.621
36.502,492.301
36.504,491.986
36.506,491.675
36.508,491.37
36.51,491.069
36.512,490.773
36.514,490.482
36.516,490.196
36.518,489.913
36.52,489.636
36.522,489.363
36.524,489.094
36.526,488.829
36.528,488.569
36.53,488.312
36.532,488.06
36.534,487.812
36.536,487.568
36.538,487.327
36.54,487.091
36.542,486.858
36.544,486.629
36.546,486.403
36.548,486.181
36.55,485.962
36.552,485.747
36.554,485.536
36.556,485.327
36.558,485.122
36.56,484.92
36.562,484.721
36.564,484.526
36.566,484.333
36.568,484.143
36.57,483.957
36.572,483.773
36.574,483.592
36.576,483.413
36.578,483.238
36.58,483.065
36.582,482.895
36.584,482.727
36.586,482.562
36.588,482.4
36.59,482.24
36.592,482.082
36.594,481.927
36.596,481.774
36.598,481.623
36.6,481.475
36.602,481.328
36.604,481.184
36.606,481.042
36.608,480.903
36.61,480.765
36.612,480.629
36.614,480.495
36.616,480.364
36.618,480.234
36.62,480.106
36.622,479.979
36.624,479.855
36.626,479.733
36.628,479.612
36.63,479.493
36.632,479.375
36.634,479.26
36.636,479.146
36.638,479.033
36.64,478.922
36.642,478.813
36.644,478.705
36.646,478.599
36.648,478.494
36.65,478.391
36.652,478.289
36.654,478.188
36.656,478.089
36.658,477.991
36.66,477.895
36.662,477.799
36.664,477.706
36.666,477.613
36.668,477.522
36.67,477.431
36.672,477.343
36.674,477.255
36.676,477.168
36.678,477.083
36.68,476.998
36.682,476.915
36.684,476.833
36.686,476.752
36.688,476.672
36.69,476.593
36.692,476.515
36.694,476.438
36.696,476.362
36.698,476.287
36.7,476.213
36.702,476.14
36.704,476.068
36.706,475.997
36.708,475.927
36.71,475.857
36.712,475.788
36.714,475.721
36.716,475.654
36.718,475.588
36.72,475.523
36.722,475.458
36.724,475.394
36.726,475.332
36.728,475.269
36.73,475.208
36.732,475.147
36.734,475.088
36.736,475.028
36.738,474.97
36.74,474.912
36.742,474.855
36.744,474.799
36.746,474.743
36.748,474.688
36.75,474.633
36.752,474.58
36.754,474.526
36.756,474.474
36.758,474.422
36.76,474.371
36.762,474.32
36.764,474.27
36.766,474.22
36.768,474.171
36.77,474.123
36.772,474.075
36.774,474.027
36.776,473.981
36.778,473.934
36.78,473.888
36.782,473.843
36.784,473.798
36.786,473.754
36.788,473.71
36.79,473.667
36.792,473.624
36.794,473.582
36.796,473.54
36.798,473.498
36.8,473.457
36.802,473.417
36.804,473.377
36.806,473.337
36.808,473.298
36.81,473.259
36.812,473.221
36.814,473.183
36.816,473.145
36.818,473.108
36.82,473.071
36.822,473.034
36.824,472.998
36.826,472.963
36.828,472.927
36.83,472.892
36.832,472.858
36.834,472.824
36.836,472.79
36.838,472.756
36.84,472.723
36.842,472.69
36.844,472.658
36.846,472.625
36.848,472.594
36.85,472.562
36.852,472.531
36.854,472.5
36.856,472.469
36.858,472.439
36.86,472.409
36.862,472.379
36.864,472.35
36.866,472.321
36.868,472.292
36.87,472.263
36.872,472.235
36.874,472.207
36.876,472.179
36.878,472.152
36.88,472.124
36.882,472.097
36.884,472.071
36.886,472.044
36.888,472.018
36.89,471.992
36.892,471.967
36.894,471.941
36.896,471.916
36.898,471.891
36.9,471.866
36.902,471.842
36.904,471.817
36.906,471.793
36.908,471.769
36.91,471.746
36.912,471.722
36.914,471.699
36.916,471.676
36.918,471.653
36.92,471.631
36.922,471.609
36.924,471.586
36.926,471.564
36.928,471.543
36.93,471.521
36.932,471.5
36.934,471.479
36.936,471.458
36.938,471.437
36.94,471.416
36.942,471.396
36.944,471.375
36.946,471.355
36.948,471.335
36.95,471.316
36.952,471.296
36.954,471.277
36.956,471.258
36.958,471.238
36.96,471.22
36.962,471.201
36.964,471.182
36.966,471.164
36.968,471.146
36.97,471.127
36.972,471.11
36.974,471.092
36.976,471.074
36.978,471.057
36.98,471.039
36.982,471.022
36.984,471.005
36.986,470.988
36.988,470.971
36.99,470.955
36.992,470.938
36.994,470.922
36.996,470.905
36.998,470.889
37,470.873
37.002,470.858
37.004,470.842
37.006,470.826
37.008,470.811
37.01,470.795
37.012,470.78
37.014,470.765
37.016,470.75
37.018,470.735
37.02,470.721
37.022,470.706
37.024,470.691
37.026,470.677
37.028,470.663
37.03,470.649
37.032,470.635
37.034,470.621
37.036,470.607
37.038,470.593
37.04,470.58
37.042,470.566
37.044,470.553
37.046,470.539
37.048,470.526
37.05,470.513
37.052,470.5
37.054,470.487
37.056,470.474
37.058,470.462
37.06,470.449
37.062,470.436
37.064,470.424
37.066,470.412
37.068,470.4
37.07,470.387
37.072,470.375
37.074,470.363
37.076,470.351
37.078,470.34
37.08,470.328
37.082,470.316
37.084,470.305
37.086,470.293
37.088,470.282
37.09,470.271
37.092,470.26
37.094,470.249
37.096,470.238
37.098,470.227
37.1,470.216
37.102,470.205
37.104,470.194
37.106,470.184
37.108,470.173
37.11,470.163
37.112,470.152
37.114,470.142
37.116,470.132
37.118,470.121
37.12,470.111
37.122,470.101
37.124,470.091
37.126,470.081
37.128,470.071
37.13,470.062
37.132,470.052
37.134,470.042
37.136,470.033
37.138,470.023
37.14,470.014
37.142,470.005
37.144,469.995
37.146,469.986
37.148,469.977
37.15,469.968
37.152,469.959
37.154,469.95
37.156,469.941
37.158,469.932
37.16,469.923
37.162,469.914
37.164,469.906
37.166,469.897
37.168,469.888
37.17,469.88
37.172,469.871
37.174,469.863
37.176,469.855
37.178,469.846
37.18,469.838
37.182,469.83
37.184,469.822
37.186,469.814
37.188,469.806
37.19,469.798
37.192,469.79
37.194,469.782
37.196,469.774
37.198,469.767
37.2,469.759
37.202,469.751
37.204,469.744
37.206,469.736
37.208,469.728
37.21,469.721
37.212,469.714
37.214,469.706
37.216,469.699
37.218,469.692
37.22,469.684
37.222,469.677
37.224,469.67
37.226,469.663
37.228,469.656
37.23,469.649
37.232,469.642
37.234,469.635
37.236,469.628
37.238,469.621
37.24,469.615
37.242,469.608
37.244,469.601
37.246,469.594
37.248,469.588
37.25,469.581
37.252,469.575
37.254,469.568
37.256,469.562
37.258,469.555
37.26,469.549
37.262,469.543
37.264,469.536
37.266,469.53
37.268,469.524
37.27,469.518
37.272,469.511
37.274,469.505
37.276,469.499
37.278,469.493
37.28,469.487
37.282,469.481
37.284,469.475
37.286,469.469
37.288,469.464
37.29,469.458
37.292,469.452
37.294,469.446
37.296,469.44
37.298,469.435
37.3,469.429
37.302,469.423
37.304,469.418
37.306,469.412
37.308,469.407
37.31,469.401
37.312,469.396
37.314,469.39
37.316,469.385
37.318,469.38
37.32,469.374
37.322,469.369
37.324,469.364
37.326,469.358
37.328,469.353
37.33,469.348
37.332,469.343
37.334,469.338
37.336,469.333
37.338,469.328
37.34,469.323
37.342,469.317
37.344,469.313
37.346,469.308
37.348,469.303
37.35,469.298
37.352,469.293
37.354,469.288
37.356,469.283
37.358,469.278
37.36,469.274
37.362,469.269
37.364,469.264
37.366,469.259
37.368,469.255
37.37,469.25
37.372,469.246
37.374,469.241
37.376,469.236
37.378,469.232
37.38,469.227
37.382,469.223
37.384,469.218
37.386,469.214
37.388,469.21
37.39,469.205
37.392,469.201
37.394,469.196
37.396,469.192
37.398,469.188
37.4,469.184
37.402,469.179
37.404,469.175
37.406,469.171
37.408,469.167
37.41,469.163
37.412,469.158
37.414,469.154
37.416,469.15
37.418,469.146
37.42,469.142
37.422,469.138
37.424,469.134
37.426,469.13
37.428,469.126
37.43,469.122
37.432,469.118
37.434,469.114
37.436,469.11
37.438,469.107
37.44,469.103
37.442,469.099
37.444,469.095
37.446,469.091
37.448,469.088
37.45,469.084
37.452,469.08
37.454,469.076
37.456,469.073
37.458,469.069
37.46,469.065
37.462,469.062
37.464,469.058
37.466,469.055
37.468,469.051
37.47,469.047
37.472,469.044
37.474,469.04
37.476,469.037
37.478,469.033
37.48,469.03
37.482,469.026
37.484,469.023
37.486,469.02
37.488,469.016
37.49,469.013
37.492,469.009
37.494,469.006
37.496,469.003
37.498,468.999
37.5,468.996
37.502,468.993
37.504,468.99
37.506,468.986
37.508,468.983
37.51,468.98
37.512,468.977
37.514,468.973
37.516,468.97
37.518,468.967
37.52,468.964
37.522,468.961
37.524,468.958
37.526,468.955
37.528,468.951
37.53,468.948
37.532,468.945
37.534,468.942
37.536,468.939
37.538,468.936
37.54,468.933
37.542,468.93
37.544,468.927
37.546,468.924
37.548,468.921
37.55,468.919
37.552,468.916
37.554,468.913
37.556,468.91
37.558,468.907
37.56,468.904
37.562,468.901
37.564,468.898
37.566,468.896
37.568,468.893
37.57,468.89
37.572,468.887
37.574,468.884
37.576,468.882
37.578,468.879
37.58,468.876
37.582,468.874
37.584,468.871
37.586,468.868
37.588,468.865
37.59,468.863
37.592,468.86
37.594,468.857
37.596,468.855
37.598,468.852
37.6,468.85
37.602,468.847
37.604,468.844
37.606,468.842
37.608,468.839
37.61,468.837
37.612,468.834
37.614,468.832
37.616,468.829
37.618,468.827
37.62,468.824
37.622,468.822
37.624,468.819
37.626,468.817
37.628,468.814
37.63,468.812
37.632,468.81
37.634,468.807
37.636,468.805
37.638,468.802
37.64,468.8
37.642,468.798
37.644,468.795
37.646,468.793
37.648,468.791
37.65,468.788
37.652,468.786
37.654,468.784
37.656,468.781
37.658,468.779
37.66,468.777
37.662,468.774
37.664,468.772
37.666,468.77
37.668,468.768
37.67,468.765
37.672,468.763
37.674,468.761
37.676,468.759
37.678,468.757
37.68,468.754
37.682,468.752
37.684,468.75
37.686,468.748
37.688,468.746
37.69,468.744
37.692,468.742
37.694,468.739
37.696,468.737
37.698,468.735
37.7,468.733
37.702,468.731
37.704,468.729
37.706,468.727
37.708,468.725
37.71,468.723
37.712,468.721
37.714,468.719
37.716,468.717
37.718,468.715
37.72,468.713
37.722,468.711
37.724,468.709
37.726,468.707
37.728,468.705
37.73,468.703
37.732,468.701
37.734,468.699
37.736,468.697
37.738,468.695
37.74,468.693
37.742,468.691
37.744,468.689
37.746,468.687
37.748,468.686
37.75,468.684
37.752,468.682
37.754,468.68
37.756,468.678
37.758,468.676
37.76,468.674
37.762,468.673
37.764,468.671
37.766,468.669
37.768,468.667
37.77,468.665
37.772,468.663
37.774,468.662
37.776,468.66
37.778,468.658
37.78,468.656
37.782,468.655
37.784,468.653
37.786,468.651
37.788,468.649
37.79,468.648
37.792,468.646
37.794,468.644
37.796,468.642
37.798,468.641
37.8,468.639
37.802,468.637
37.804,468.636
37.806,468.634
37.808,468.632
37.81,468.631
37.812,468.629
37.814,468.627
37.816,468.626
37.818,468.624
37.82,468.622
37.822,468.621
37.824,468.619
37.826,468.618
37.828,468.616
37.83,468.614
37.832,468.613
37.834,468.611
37.836,468.61
37.838,468.608
37.84,468.606
37.842,468.605
37.844,468.603
37.846,468.602
37.848,468.6
37.85,468.599
37.852,468.597
37.854,468.596
37.856,468.594
37.858,468.593
37.86,468.591
37.862,468.589
37.864,468.588
37.866,468.586
37.868,468.585
37.87,468.584
37.872,468.582
37.874,468.581
37.876,468.579
37.878,468.578
37.88,468.576
37.882,468.575
37.884,468.573
37.886,468.572
37.888,468.57
37.89,468.569
37.892,468.568
37.894,468.566
37.896,468.565
37.898,468.563
37.9,468.562
37.902,468.561
37.904,468.559
37.906,468.558
37.908,468.556
37.91,468.555
37.912,468.554
37.914,468.552
37.916,468.551
37.918,468.55
37.92,468.548
37.922,468.547
37.924,468.545
37.926,468.544
37.928,468.543
37.93,468.541
37.932,468.54
37.934,468.539
37.936,468.538
37.938,468.536
37.94,468.535
37.942,468.534
37.944,468.532
37.946,468.531
37.948,468.53
37.95,468.528
37.952,468.527
37.954,468.526
37.956,468.525
37.958,468.523
37.96,468.522
37.962,468.521
37.964,468.52
37.966,468.518
37.968,468.517
37.97,468.516
37.972,468.515
37.974,468.513
37.976,468.512
37.978,468.511
37.98,468.51
37.982,468.509
37.984,468.507
37.986,468.506
37.988,468.505
37.99,468.504
37.992,468.503
37.994,468.501
37.996,468.5
37.998,468.499
37.999,468.498