File: pb/bose_2007/18nm/xrd/curve_1_fit.dat
35.0,0.463279
35.002,0.464648
35.004,0.466024
35.006,0.467406
35.008,0.468794
35.01,0.470188
35.012,0.471588
35.014,0.472995
35.016,0.474407
35.018,0.475826
35.02,0.477251
35.022,0.478683
35.024,0.480121
35.026,0.481565
35.028,0.483016
35.03,0.484473
35.032,0.485937
35.034,0.487408
35.036,0.488885
35.038,0.490369
35.04,0.491859
35.042,0.493356
35.044,0.49486
35.046,0.496371
35.048,0.497889
35.05,0.499413
35.052,0.500945
35.054,0.502483
35.056,0.504029
35.058,0.505581
35.06,0.507141
35.062,0.508707
35.064,0.510281
35.066,0.511863
35.068,0.513451
35.07,0.515047
35.072,0.51665
35.074,0.518261
35.076,0.519879
35.078,0.521505
35.08,0.523138
35.082,0.524778
35.084,0.526427
35.086,0.528083
35.088,0.529747
35.09,0.531418
35.092,0.533098
35.094,0.534785
35.096,0.53648
35.098,0.538184
35.1,0.539895
35.102,0.541614
35.104,0.543342
35.106,0.545078
35.108,0.546821
35.11,0.548574
35.112,0.550334
35.114,0.552103
35.116,0.553881
35.118,0.555666
35.12,0.557461
35.122,0.559264
35.124,0.561076
35.126,0.562896
35.128,0.564725
35.13,0.566563
35.132,0.56841
35.134,0.570266
35.136,0.572131
35.138,0.574005
35.14,0.575888
35.142,0.57778
35.144,0.579681
35.146,0.581592
35.148,0.583512
35.15,0.585441
35.152,0.58738
35.154,0.589329
35.156,0.591287
35.158,0.593254
35.16,0.595232
35.162,0.597219
35.164,0.599216
35.166,0.601223
35.168,0.60324
35.17,0.605266
35.172,0.607303
35.174,0.609351
35.176,0.611408
35.178,0.613476
35.18,0.615554
35.182,0.617642
35.184,0.619741
35.186,0.621851
35.188,0.623971
35.19,0.626102
35.192,0.628244
35.194,0.630397
35.196,0.63256
35.198,0.634735
35.2,0.636921
35.202,0.639118
35.204,0.641326
35.206,0.643545
35.208,0.645776
35.21,0.648018
35.212,0.650272
35.214,0.652537
35.216,0.654814
35.218,0.657103
35.22,0.659404
35.222,0.661716
35.224,0.664041
35.226,0.666378
35.228,0.668727
35.23,0.671088
35.232,0.673462
35.234,0.675848
35.236,0.678246
35.238,0.680657
35.24,0.683081
35.242,0.685518
35.244,0.687967
35.246,0.69043
35.248,0.692905
35.25,0.695394
35.252,0.697896
35.254,0.700411
35.256,0.70294
35.258,0.705482
35.26,0.708037
35.262,0.710607
35.264,0.71319
35.266,0.715787
35.268,0.718398
35.27,0.721024
35.272,0.723663
35.274,0.726317
35.276,0.728985
35.278,0.731668
35.28,0.734365
35.282,0.737077
35.284,0.739804
35.286,0.742545
35.288,0.745302
35.29,0.748074
35.292,0.750861
35.294,0.753663
35.296,0.756481
35.298,0.759315
35.3,0.762164
35.302,0.765029
35.304,0.76791
35.306,0.770807
35.308,0.77372
35.31,0.77665
35.312,0.779595
35.314,0.782558
35.316,0.785537
35.318,0.788532
35.32,0.791545
35.322,0.794575
35.324,0.797621
35.326,0.800685
35.328,0.803767
35.33,0.806866
35.332,0.809982
35.334,0.813116
35.336,0.816269
35.338,0.819439
35.34,0.822627
35.342,0.825834
35.344,0.829059
35.346,0.832303
35.348,0.835566
35.35,0.838847
35.352,0.842148
35.354,0.845467
35.356,0.848806
35.358,0.852165
35.36,0.855543
35.362,0.858941
35.364,0.862358
35.366,0.865796
35.368,0.869254
35.37,0.872732
35.372,0.876231
35.374,0.879751
35.376,0.883291
35.378,0.886853
35.38,0.890435
35.382,0.894039
35.384,0.897665
35.386,0.901312
35.388,0.904981
35.39,0.908672
35.392,0.912385
35.394,0.916121
35.396,0.919879
35.398,0.923659
35.4,0.927463
35.402,0.93129
35.404,0.93514
35.406,0.939013
35.408,0.94291
35.41,0.946831
35.412,0.950776
35.414,0.954745
35.416,0.958739
35.418,0.962757
35.42,0.9668
35.422,0.970868
35.424,0.974961
35.426,0.979079
35.428,0.983223
35.43,0.987393
35.432,0.991589
35.434,0.995811
35.436,1.00006
35.438,1.00434
35.44,1.00864
35.442,1.01297
35.444,1.01732
35.446,1.02171
35.448,1.02612
35.45,1.03056
35.452,1.03503
35.454,1.03952
35.456,1.04405
35.458,1.0486
35.46,1.05319
35.462,1.0578
35.464,1.06244
35.466,1.06711
35.468,1.07182
35.47,1.07655
35.472,1.08131
35.474,1.08611
35.476,1.09093
35.478,1.09579
35.48,1.10068
35.482,1.1056
35.484,1.11056
35.486,1.11554
35.488,1.12056
35.49,1.12561
35.492,1.1307
35.494,1.13582
35.496,1.14097
35.498,1.14616
35.5,1.15138
35.502,1.15664
35.504,1.16193
35.506,1.16725
35.508,1.17262
35.51,1.17802
35.512,1.18345
35.514,1.18893
35.516,1.19443
35.518,1.19998
35.52,1.20557
35.522,1.21119
35.524,1.21685
35.526,1.22255
35.528,1.22829
35.53,1.23407
35.532,1.23988
35.534,1.24574
35.536,1.25164
35.538,1.25758
35.54,1.26356
35.542,1.26958
35.544,1.27565
35.546,1.28175
35.548,1.2879
35.55,1.2941
35.552,1.30033
35.554,1.30661
35.556,1.31294
35.558,1.3193
35.56,1.32572
35.562,1.33218
35.564,1.33868
35.566,1.34523
35.568,1.35183
35.57,1.35848
35.572,1.36517
35.574,1.37191
35.576,1.3787
35.578,1.38554
35.58,1.39243
35.582,1.39937
35.584,1.40636
35.586,1.4134
35.588,1.42049
35.59,1.42763
35.592,1.43483
35.594,1.44207
35.596,1.44937
35.598,1.45673
35.6,1.46414
35.602,1.4716
35.604,1.47912
35.606,1.4867
35.608,1.49433
35.61,1.50202
35.612,1.50976
35.614,1.51757
35.616,1.52543
35.618,1.53335
35.62,1.54133
35.622,1.54938
35.624,1.55748
35.626,1.56564
35.628,1.57387
35.63,1.58216
35.632,1.59051
35.634,1.59893
35.636,1.60741
35.638,1.61596
35.64,1.62457
35.642,1.63325
35.644,1.64199
35.646,1.65081
35.648,1.65969
35.65,1.66864
35.652,1.67766
35.654,1.68675
35.656,1.69592
35.658,1.70515
35.66,1.71446
35.662,1.72384
35.664,1.7333
35.666,1.74283
35.668,1.75243
35.67,1.76212
35.672,1.77188
35.674,1.78172
35.676,1.79163
35.678,1.80163
35.68,1.81171
35.682,1.82186
35.684,1.83211
35.686,1.84243
35.688,1.85284
35.69,1.86333
35.692,1.87391
35.694,1.88457
35.696,1.89532
35.698,1.90616
35.7,1.91709
35.702,1.92811
35.704,1.93922
35.706,1.95042
35.708,1.96171
35.71,1.9731
35.712,1.98459
35.714,1.99617
35.716,2.00784
35.718,2.01962
35.72,2.03149
35.722,2.04347
35.724,2.05554
35.726,2.06772
35.728,2.08
35.73,2.09238
35.732,2.10488
35.734,2.11747
35.736,2.13018
35.738,2.14299
35.74,2.15592
35.742,2.16895
35.744,2.1821
35.746,2.19536
35.748,2.20874
35.75,2.22223
35.752,2.23585
35.754,2.24958
35.756,2.26343
35.758,2.2774
35.76,2.29149
35.762,2.30571
35.764,2.32005
35.766,2.33453
35.768,2.34912
35.77,2.36385
35.772,2.37871
35.774,2.39371
35.776,2.40883
35.778,2.4241
35.78,2.4395
35.782,2.45504
35.784,2.47071
35.786,2.48654
35.788,2.5025
35.79,2.51861
35.792,2.53486
35.794,2.55127
35.796,2.56782
35.798,2.58453
35.8,2.60139
35.802,2.6184
35.804,2.63557
35.806,2.6529
35.808,2.67039
35.81,2.68804
35.812,2.70586
35.814,2.72384
35.816,2.742
35.818,2.76032
35.82,2.77881
35.822,2.79748
35.824,2.81632
35.826,2.83534
35.828,2.85454
35.83,2.87392
35.832,2.89349
35.834,2.91324
35.836,2.93318
35.838,2.95331
35.84,2.97363
35.842,2.99415
35.844,3.01487
35.846,3.03579
35.848,3.0569
35.85,3.07823
35.852,3.09976
35.854,3.12149
35.856,3.14344
35.858,3.16561
35.86,3.18799
35.862,3.21059
35.864,3.23341
35.866,3.25645
35.868,3.27973
35.87,3.30323
35.872,3.32696
35.874,3.35093
35.876,3.37514
35.878,3.39958
35.88,3.42428
35.882,3.44921
35.884,3.4744
35.886,3.49984
35.888,3.52553
35.89,3.55148
35.892,3.5777
35.894,3.60418
35.896,3.63092
35.898,3.65794
35.9,3.68523
35.902,3.71279
35.904,3.74064
35.906,3.76877
35.908,3.79719
35.91,3.82589
35.912,3.85489
35.914,3.88419
35.916,3.91379
35.918,3.9437
35.92,3.97391
35.922,4.00443
35.924,4.03527
35.926,4.06643
35.928,4.09791
35.93,4.12971
35.932,4.16185
35.934,4.19432
35.936,4.22713
35.938,4.26028
35.94,4.29377
35.942,4.32762
35.944,4.36182
35.946,4.39638
35.948,4.4313
35.95,4.46659
35.952,4.50224
35.954,4.53828
35.956,4.57469
35.958,4.61148
35.96,4.64867
35.962,4.68624
35.964,4.72421
35.966,4.76259
35.968,4.80136
35.97,4.84055
35.972,4.88016
35.974,4.92018
35.976,4.96063
35.978,5.0015
35.98,5.04281
35.982,5.08456
35.984,5.12675
35.986,5.16939
35.988,5.21248
35.99,5.25603
35.992,5.30004
35.994,5.34452
35.996,5.38947
35.998,5.4349
36,5.48081
36.002,5.52721
36.004,5.5741
36.006,5.62148
36.008,5.66937
36.01,5.71777
36.012,5.76667
36.014,5.8161
36.016,5.86604
36.018,5.91652
36.02,5.96752
36.022,6.01906
36.024,6.07115
36.026,6.12378
36.028,6.17696
36.03,6.2307
36.032,6.285
36.034,6.33986
36.036,6.3953
36.038,6.45132
36.04,6.50791
36.042,6.56509
36.044,6.62286
36.046,6.68122
36.048,6.74019
36.05,6.79975
36.052,6.85993
36.054,6.92071
36.056,6.98211
36.058,7.04413
36.06,7.10678
36.062,7.17005
36.064,7.23395
36.066,7.29849
36.068,7.36366
36.07,7.42948
36.072,7.49594
36.074,7.56304
36.076,7.6308
36.078,7.69921
36.08,7.76827
36.082,7.83799
36.084,7.90837
36.086,7.97941
36.088,8.05111
36.09,8.12347
36.092,8.1965
36.094,8.27019
36.096,8.34454
36.098,8.41956
36.1,8.49524
36.102,8.57158
36.104,8.64859
36.106,8.72626
36.108,8.80458
36.11,8.88356
36.112,8.9632
36.114,9.04348
36.116,9.12441
36.118,9.20599
36.12,9.2882
36.122,9.37104
36.124,9.45452
36.126,9.53861
36.128,9.62332
36.13,9.70863
36.132,9.79454
36.134,9.88105
36.136,9.96814
36.138,10.0558
36.14,10.144
36.142,10.2328
36.144,10.3221
36.146,10.4119
36.148,10.5023
36.15,10.5931
36.152,10.6844
36.154,10.7762
36.156,10.8684
36.158,10.9611
36.16,11.0542
36.162,11.1477
36.164,11.2415
36.166,11.3357
36.168,11.4302
36.17,11.5251
36.172,11.6202
36.174,11.7156
36.176,11.8112
36.178,11.907
36.18,12.0029
36.182,12.0991
36.184,12.1953
36.186,12.2916
36.188,12.388
36.19,12.4844
36.192,12.5808
36.194,12.6771
36.196,12.7733
36.198,12.8694
36.2,12.9654
36.202,13.0611
36.204,13.1566
36.206,13.2517
36.208,13.3466
36.21,13.4411
36.212,13.5351
36.214,13.6287
36.216,13.7218
36.218,13.8143
36.22,13.9062
36.222,13.9974
36.224,14.0879
36.226,14.1776
36.228,14.2666
36.23,14.3546
36.232,14.4418
36.234,14.5279
36.236,14.6131
36.238,14.6971
36.24,14.78
36.242,14.8617
36.244,14.9422
36.246,15.0214
36.248,15.0992
36.25,15.1756
36.252,15.2505
36.254,15.3239
36.256,15.3957
36.258,15.4659
36.26,15.5343
36.262,15.6011
36.264,15.666
36.266,15.7291
36.268,15.7903
36.27,15.8496
36.272,15.9068
36.274,15.962
36.276,16.0151
36.278,16.0661
36.28,16.1149
36.282,16.1615
36.284,16.2057
36.286,16.2477
36.288,16.2874
36.29,16.3246
36.292,16.3595
36.294,16.3918
36.296,16.4218
36.298,16.4492
36.3,16.474
36.302,16.4964
36.304,16.5161
36.306,16.5333
36.308,16.5478
36.31,16.5597
36.312,16.569
36.314,16.5756
36.316,16.5796
36.318,16.5809
36.32,16.5796
36.322,16.5756
36.324,16.569
36.326,16.5597
36.328,16.5478
36.33,16.5333
36.332,16.5161
36.334,16.4964
36.336,16.474
36.338,16.4492
36.34,16.4218
36.342,16.3918
36.344,16.3595
36.346,16.3246
36.348,16.2874
36.35,16.2477
36.352,16.2057
36.354,16.1615
36.356,16.1149
36.358,16.0661
36.36,16.0151
36.362,15.962
36.364,15.9068
36.366,15.8496
36.368,15.7903
36.37,15.7291
36.372,15.666
36.374,15.6011
36.376,15.5343
36.378,15.4659
36.38,15.3957
36.382,15.3239
36.384,15.2505
36.386,15.1756
36.388,15.0992
36.39,15.0214
36.392,14.9422
36.394,14.8617
36.396,14.78
36.398,14.6971
36.4,14.6131
36.402,14.5279
36.404,14.4418
36.406,14.3546
36.408,14.2666
36.41,14.1776
36.412,14.0879
36.414,13.9974
36.416,13.9062
36.418,13.8143
36.42,13.7218
36.422,13.6287
36.424,13.5351
36.426,13.4411
36.428,13.3466
36.43,13.2517
36.432,13.1566
36.434,13.0611
36.436,12.9654
36.438,12.8694
36.44,12.7733
36.442,12.6771
36.444,12.5808
36.446,12.4844
36.448,12.388
36.45,12.2916
36.452,12.1953
36.454,12.0991
36.456,12.0029
36.458,11.907
36.46,11.8112
36.462,11.7156
36.464,11.6202
36.466,11.5251
36.468,11.4302
36.47,11.3357
36.472,11.2415
36.474,11.1477
36.476,11.0542
36.478,10.9611
36.48,10.8684
36.482,10.7762
36.484,10.6844
36.486,10.5931
36.488,10.5023
36.49,10.4119
36.492,10.3221
36.494,10.2328
36.496,10.144
36.498,10.0558
36.5,9.96814
36.502,9.88105
36.504,9.79454
36.506,9.70863
36.508,9.62332
36.51,9.53861
36.512,9.45452
36.514,9.37104
36.516,9.2882
36.518,9.20599
36.52,9.12441
36.522,9.04348
36.524,8.9632
36.526,8.88356
36.528,8.80458
36.53,8.72626
36.532,8.64859
36.534,8.57158
36.536,8.49524
36.538,8.41956
36.54,8.34454
36.542,8.27019
36.544,8.1965
36.546,8.12347
36.548,8.05111
36.55,7.97941
36.552,7.90837
36.554,7.83799
36.556,7.76827
36.558,7.69921
36.56,7.6308
36.562,7.56304
36.564,7.49594
36.566,7.42948
36.568,7.36366
36.57,7.29849
36.572,7.23395
36.574,7.17005
36.576,7.10678
36.578,7.04413
36.58,6.98211
36.582,6.92071
36.584,6.85993
36.586,6.79975
36.588,6.74019
36.59,6.68122
36.592,6.62286
36.594,6.56509
36.596,6.50791
36.598,6.45132
36.6,6.3953
36.602,6.33986
36.604,6.285
36.606,6.2307
36.608,6.17696
36.61,6.12378
36.612,6.07115
36.614,6.01906
36.616,5.96752
36.618,5.91652
36.62,5.86604
36.622,5.8161
36.624,5.76667
36.626,5.71777
36.628,5.66937
36.63,5.62148
36.632,5.5741
36.634,5.52721
36.636,5.48081
36.638,5.4349
36.64,5.38947
36.642,5.34452
36.644,5.30004
36.646,5.25603
36.648,5.21248
36.65,5.16939
36.652,5.12675
36.654,5.08456
36.656,5.04281
36.658,5.0015
36.66,4.96063
36.662,4.92018
36.664,4.88016
36.666,4.84055
36.668,4.80136
36.67,4.76259
36.672,4.72421
36.674,4.68624
36.676,4.64867
36.678,4.61148
36.68,4.57469
36.682,4.53828
36.684,4.50224
36.686,4.46659
36.688,4.4313
36.69,4.39638
36.692,4.36182
36.694,4.32762
36.696,4.29377
36.698,4.26028
36.7,4.22713
36.702,4.19432
36.704,4.16185
36.706,4.12971
36.708,4.09791
36.71,4.06643
36.712,4.03527
36.714,4.00443
36.716,3.97391
36.718,3.9437
36.72,3.91379
36.722,3.88419
36.724,3.85489
36.726,3.82589
36.728,3.79719
36.73,3.76877
36.732,3.74064
36.734,3.71279
36.736,3.68523
36.738,3.65794
36.74,3.63092
36.742,3.60418
36.744,3.5777
36.746,3.55148
36.748,3.52553
36.75,3.49984
36.752,3.4744
36.754,3.44921
36.756,3.42428
36.758,3.39958
36.76,3.37514
36.762,3.35093
36.764,3.32696
36.766,3.30323
36.768,3.27973
36.77,3.25645
36.772,3.23341
36.774,3.21059
36.776,3.18799
36.778,3.16561
36.78,3.14344
36.782,3.12149
36.784,3.09976
36.786,3.07823
36.788,3.0569
36.79,3.03579
36.792,3.01487
36.794,2.99415
36.796,2.97363
36.798,2.95331
36.8,2.93318
36.802,2.91324
36.804,2.89349
36.806,2.87392
36.808,2.85454
36.81,2.83534
36.812,2.81632
36.814,2.79748
36.816,2.77881
36.818,2.76032
36.82,2.742
36.822,2.72384
36.824,2.70586
36.826,2.68804
36.828,2.67039
36.83,2.6529
36.832,2.63557
36.834,2.6184
36.836,2.60139
36.838,2.58453
36.84,2.56782
36.842,2.55127
36.844,2.53486
36.846,2.51861
36.848,2.5025
36.85,2.48654
36.852,2.47071
36.854,2.45504
36.856,2.4395
36.858,2.4241
36.86,2.40883
36.862,2.39371
36.864,2.37871
36.866,2.36385
36.868,2.34912
36.87,2.33453
36.872,2.32005
36.874,2.30571
36.876,2.29149
36.878,2.2774
36.88,2.26343
36.882,2.24958
36.884,2.23585
36.886,2.22223
36.888,2.20874
36.89,2.19536
36.892,2.1821
36.894,2.16895
36.896,2.15592
36.898,2.14299
36.9,2.13018
36.902,2.11747
36.904,2.10488
36.906,2.09238
36.908,2.08
36.91,2.06772
36.912,2.05554
36.914,2.04347
36.916,2.03149
36.918,2.01962
36.92,2.00784
36.922,1.99617
36.924,1.98459
36.926,1.9731
36.928,1.96171
36.93,1.95042
36.932,1.93922
36.934,1.92811
36.936,1.91709
36.938,1.90616
36.94,1.89532
36.942,1.88457
36.944,1.87391
36.946,1.86333
36.948,1.85284
36.95,1.84243
36.952,1.83211
36.954,1.82186
36.956,1.81171
36.958,1.80163
36.96,1.79163
36.962,1.78172
36.964,1.77188
36.966,1.76212
36.968,1.75243
36.97,1.74283
36.972,1.7333
36.974,1.72384
36.976,1.71446
36.978,1.70515
36.98,1.69592
36.982,1.68675
36.984,1.67766
36.986,1.66864
36.988,1.65969
36.99,1.65081
36.992,1.64199
36.994,1.63325
36.996,1.62457
36.998,1.61596
37,1.60741
37.002,1.59893
37.004,1.59051
37.006,1.58216
37.008,1.57387
37.01,1.56564
37.012,1.55748
37.014,1.54938
37.016,1.54133
37.018,1.53335
37.02,1.52543
37.022,1.51757
37.024,1.50976
37.026,1.50202
37.028,1.49433
37.03,1.4867
37.032,1.47912
37.034,1.4716
37.036,1.46414
37.038,1.45673
37.04,1.44937
37.042,1.44207
37.044,1.43483
37.046,1.42763
37.048,1.42049
37.05,1.4134
37.052,1.40636
37.054,1.39937
37.056,1.39243
37.058,1.38554
37.06,1.3787
37.062,1.37191
37.064,1.36517
37.066,1.35848
37.068,1.35183
37.07,1.34523
37.072,1.33868
37.074,1.33218
37.076,1.32572
37.078,1.3193
37.08,1.31294
37.082,1.30661
37.084,1.30033
37.086,1.2941
37.088,1.2879
37.09,1.28175
37.092,1.27565
37.094,1.26958
37.096,1.26356
37.098,1.25758
37.1,1.25164
37.102,1.24574
37.104,1.23988
37.106,1.23407
37.108,1.22829
37.11,1.22255
37.112,1.21685
37.114,1.21119
37.116,1.20557
37.118,1.19998
37.12,1.19443
37.122,1.18893
37.124,1.18345
37.126,1.17802
37.128,1.17262
37.13,1.16725
37.132,1.16193
37.134,1.15664
37.136,1.15138
37.138,1.14616
37.14,1.14097
37.142,1.13582
37.144,1.1307
37.146,1.12561
37.148,1.12056
37.15,1.11554
37.152,1.11056
37.154,1.1056
37.156,1.10068
37.158,1.09579
37.16,1.09093
37.162,1.08611
37.164,1.08131
37.166,1.07655
37.168,1.07182
37.17,1.06711
37.172,1.06244
37.174,1.0578
37.176,1.05319
37.178,1.0486
37.18,1.04405
37.182,1.03952
37.184,1.03503
37.186,1.03056
37.188,1.02612
37.19,1.02171
37.192,1.01732
37.194,1.01297
37.196,1.00864
37.198,1.00434
37.2,1.00006
37.202,0.995811
37.204,0.991589
37.206,0.987393
37.208,0.983223
37.21,0.979079
37.212,0.974961
37.214,0.970868
37.216,0.9668
37.218,0.962757
37.22,0.958739
37.222,0.954745
37.224,0.950776
37.226,0.946831
37.228,0.94291
37.23,0.939013
37.232,0.93514
37.234,0.93129
37.236,0.927463
37.238,0.923659
37.24,0.919879
37.242,0.916121
37.244,0.912385
37.246,0.908672
37.248,0.904981
37.25,0.901312
37.252,0.897665
37.254,0.894039
37.256,0.890435
37.258,0.886853
37.26,0.883291
37.262,0.879751
37.264,0.876231
37.266,0.872732
37.268,0.869254
37.27,0.865796
37.272,0.862358
37.274,0.858941
37.276,0.855543
37.278,0.852165
37.28,0.848806
37.282,0.845467
37.284,0.842148
37.286,0.838847
37.288,0.835566
37.29,0.832303
37.292,0.829059
37.294,0.825834
37.296,0.822627
37.298,0.819439
37.3,0.816269
37.302,0.813116
37.304,0.809982
37.306,0.806866
37.308,0.803767
37.31,0.800685
37.312,0.797621
37.314,0.794575
37.316,0.791545
37.318,0.788532
37.32,0.785537
37.322,0.782558
37.324,0.779595
37.326,0.77665
37.328,0.77372
37.33,0.770807
37.332,0.76791
37.334,0.765029
37.336,0.762164
37.338,0.759315
37.34,0.756481
37.342,0.753663
37.344,0.750861
37.346,0.748074
37.348,0.745302
37.35,0.742545
37.352,0.739804
37.354,0.737077
37.356,0.734365
37.358,0.731668
37.36,0.728985
37.362,0.726317
37.364,0.723663
37.366,0.721024
37.368,0.718398
37.37,0.715787
37.372,0.71319
37.374,0.710607
37.376,0.708037
37.378,0.705482
37.38,0.70294
37.382,0.700411
37.384,0.697896
37.386,0.695394
37.388,0.692905
37.39,0.69043
37.392,0.687967
37.394,0.685518
37.396,0.683081
37.398,0.680657
37.4,0.678246
37.402,0.675848
37.404,0.673462
37.406,0.671088
37.408,0.668727
37.41,0.666378
37.412,0.664041
37.414,0.661716
37.416,0.659404
37.418,0.657103
37.42,0.654814
37.422,0.652537
37.424,0.650272
37.426,0.648018
37.428,0.645776
37.43,0.643545
37.432,0.641326
37.434,0.639118
37.436,0.636921
37.438,0.634735
37.44,0.63256
37.442,0.630397
37.444,0.628244
37.446,0.626102
37.448,0.623971
37.45,0.621851
37.452,0.619741
37.454,0.617642
37.456,0.615554
37.458,0.613476
37.46,0.611408
37.462,0.609351
37.464,0.607303
37.466,0.605266
37.468,0.60324
37.47,0.601223
37.472,0.599216
37.474,0.597219
37.476,0.595232
37.478,0.593254
37.48,0.591287
37.482,0.589329
37.484,0.58738
37.486,0.585441
37.488,0.583512
37.49,0.581592
37.492,0.579681
37.494,0.57778
37.496,0.575888
37.498,0.574005
37.5,0.572131
37.502,0.570266
37.504,0.56841
37.506,0.566563
37.508,0.564725
37.51,0.562896
37.512,0.561076
37.514,0.559264
37.516,0.557461
37.518,0.555666
37.52,0.553881
37.522,0.552103
37.524,0.550334
37.526,0.548574
37.528,0.546821
37.53,0.545078
37.532,0.543342
37.534,0.541614
37.536,0.539895
37.538,0.538184
37.54,0.53648
37.542,0.534785
37.544,0.533098
37.546,0.531418
37.548,0.529747
37.55,0.528083
37.552,0.526427
37.554,0.524778
37.556,0.523138
37.558,0.521505
37.56,0.519879
37.562,0.518261
37.564,0.51665
37.566,0.515047
37.568,0.513451
37.57,0.511863
37.572,0.510281
37.574,0.508707
37.576,0.507141
37.578,0.505581
37.58,0.504029
37.582,0.502483
37.584,0.500945
37.586,0.499413
37.588,0.497889
37.59,0.496371
37.592,0.49486
37.594,0.493356
37.596,0.491859
37.598,0.490369
37.6,0.488885
37.602,0.487408
37.604,0.485937
37.606,0.484473
37.608,0.483016
37.61,0.481565
37.612,0.480121
37.614,0.478683
37.616,0.477251
37.618,0.475826
37.62,0.474407
37.622,0.472995
37.624,0.471588
37.626,0.470188
37.628,0.468794
37.63,0.467406
37.632,0.466024
37.634,0.464648
37.636,0.463279
37.638,0.461915
37.64,0.460557
37.642,0.459205
37.644,0.457859
37.646,0.456519
37.648,0.455185
37.65,0.453857
37.652,0.452534
37.654,0.451217
37.656,0.449905
37.658,0.4486
37.66,0.4473
37.662,0.446005
37.664,0.444716
37.666,0.443433
37.668,0.442155
37.67,0.440883
37.672,0.439616
37.674,0.438354
37.676,0.437098
37.678,0.435847
37.68,0.434601
37.682,0.433361
37.684,0.432126
37.686,0.430896
37.688,0.429672
37.69,0.428452
37.692,0.427238
37.694,0.426029
37.696,0.424825
37.698,0.423626
37.7,0.422432
37.702,0.421243
37.704,0.420058
37.706,0.418879
37.708,0.417705
37.71,0.416536
37.712,0.415371
37.714,0.414212
37.716,0.413057
37.718,0.411907
37.72,0.410762
37.722,0.409621
37.724,0.408485
37.726,0.407354
37.728,0.406228
37.73,0.405106
37.732,0.403989
37.734,0.402876
37.736,0.401768
37.738,0.400664
37.74,0.399565
37.742,0.39847
37.744,0.39738
37.746,0.396294
37.748,0.395213
37.75,0.394136
37.752,0.393064
37.754,0.391995
37.756,0.390931
37.758,0.389872
37.76,0.388816
37.762,0.387765
37.764,0.386718
37.766,0.385676
37.768,0.384637
37.77,0.383603
37.772,0.382572
37.774,0.381546
37.776,0.380524
37.778,0.379506
37.78,0.378492
37.782,0.377482
37.784,0.376477
37.786,0.375475
37.788,0.374477
37.79,0.373483
37.792,0.372493
37.794,0.371506
37.796,0.370524
37.798,0.369546
37.8,0.368571
37.802,0.3676
37.804,0.366633
37.806,0.36567
37.808,0.364711
37.81,0.363755
37.812,0.362803
37.814,0.361855
37.816,0.36091
37.818,0.359969
37.82,0.359032
37.822,0.358098
37.824,0.357168
37.826,0.356242
37.828,0.355319
37.83,0.3544
37.832,0.353484
37.834,0.352572
37.836,0.351663
37.838,0.350758
37.84,0.349856
37.842,0.348958
37.844,0.348063
37.846,0.347171
37.848,0.346283
37.85,0.345398
37.852,0.344517
37.854,0.343639
37.856,0.342764
37.858,0.341893
37.86,0.341025
37.862,0.34016
37.864,0.339299
37.866,0.33844
37.868,0.337585
37.87,0.336733
37.872,0.335885
37.874,0.335039
37.876,0.334197
37.878,0.333358
37.88,0.332522
37.882,0.331689
37.884,0.330859
37.886,0.330032
37.888,0.329209
37.89,0.328388
37.892,0.327571
37.894,0.326756
37.896,0.325945
37.898,0.325136
37.9,0.324331
37.902,0.323528
37.904,0.322729
37.906,0.321932
37.908,0.321138
37.91,0.320348
37.912,0.31956
37.914,0.318775
37.916,0.317993
37.918,0.317213
37.92,0.316437
37.922,0.315663
37.924,0.314892
37.926,0.314124
37.928,0.313359
37.93,0.312597
37.932,0.311837
37.934,0.31108
37.936,0.310326
37.938,0.309574
37.94,0.308826
37.942,0.30808
37.944,0.307336
37.946,0.306596
37.948,0.305858
37.95,0.305122
37.952,0.304389
37.954,0.303659
37.956,0.302932
37.958,0.302207
37.96,0.301484
37.962,0.300765
37.964,0.300047
37.966,0.299333
37.968,0.29862
37.97,0.297911
37.972,0.297204
37.974,0.296499
37.976,0.295797
37.978,0.295097
37.98,0.2944
37.982,0.293705
37.984,0.293013
37.986,0.292323
37.988,0.291636
37.99,0.290951
37.992,0.290268
37.994,0.289588
37.996,0.28891
37.998,0.288234
37.999,0.287898