File: pb/bose_2007/18nm/xrd/curve_total_fit.dat
35.0,359.063
35.002,359.065
35.004,359.066
35.006,359.067
35.008,359.069
35.01,359.07
35.012,359.072
35.014,359.073
35.016,359.074
35.018,359.076
35.02,359.077
35.022,359.079
35.024,359.08
35.026,359.082
35.028,359.083
35.03,359.084
35.032,359.086
35.034,359.087
35.036,359.089
35.038,359.09
35.04,359.092
35.042,359.093
35.044,359.095
35.046,359.096
35.048,359.098
35.05,359.099
35.052,359.101
35.054,359.102
35.056,359.104
35.058,359.106
35.06,359.107
35.062,359.109
35.064,359.11
35.066,359.112
35.068,359.113
35.07,359.115
35.072,359.117
35.074,359.118
35.076,359.12
35.078,359.122
35.08,359.123
35.082,359.125
35.084,359.126
35.086,359.128
35.088,359.13
35.09,359.131
35.092,359.133
35.094,359.135
35.096,359.136
35.098,359.138
35.1,359.14
35.102,359.142
35.104,359.143
35.106,359.145
35.108,359.147
35.11,359.149
35.112,359.15
35.114,359.152
35.116,359.154
35.118,359.156
35.12,359.157
35.122,359.159
35.124,359.161
35.126,359.163
35.128,359.165
35.13,359.167
35.132,359.168
35.134,359.17
35.136,359.172
35.138,359.174
35.14,359.176
35.142,359.178
35.144,359.18
35.146,359.182
35.148,359.184
35.15,359.185
35.152,359.187
35.154,359.189
35.156,359.191
35.158,359.193
35.16,359.195
35.162,359.197
35.164,359.199
35.166,359.201
35.168,359.203
35.17,359.205
35.172,359.207
35.174,359.209
35.176,359.211
35.178,359.213
35.18,359.216
35.182,359.218
35.184,359.22
35.186,359.222
35.188,359.224
35.19,359.226
35.192,359.228
35.194,359.23
35.196,359.233
35.198,359.235
35.2,359.237
35.202,359.239
35.204,359.241
35.206,359.244
35.208,359.246
35.21,359.248
35.212,359.25
35.214,359.253
35.216,359.255
35.218,359.257
35.22,359.259
35.222,359.262
35.224,359.264
35.226,359.266
35.228,359.269
35.23,359.271
35.232,359.273
35.234,359.276
35.236,359.278
35.238,359.281
35.24,359.283
35.242,359.286
35.244,359.288
35.246,359.29
35.248,359.293
35.25,359.295
35.252,359.298
35.254,359.3
35.256,359.303
35.258,359.305
35.26,359.308
35.262,359.311
35.264,359.313
35.266,359.316
35.268,359.318
35.27,359.321
35.272,359.324
35.274,359.326
35.276,359.329
35.278,359.332
35.28,359.334
35.282,359.337
35.284,359.34
35.286,359.343
35.288,359.345
35.29,359.348
35.292,359.351
35.294,359.354
35.296,359.356
35.298,359.359
35.3,359.362
35.302,359.365
35.304,359.368
35.306,359.371
35.308,359.374
35.31,359.377
35.312,359.38
35.314,359.383
35.316,359.386
35.318,359.389
35.32,359.392
35.322,359.395
35.324,359.398
35.326,359.401
35.328,359.404
35.33,359.407
35.332,359.41
35.334,359.413
35.336,359.416
35.338,359.419
35.34,359.423
35.342,359.426
35.344,359.429
35.346,359.432
35.348,359.436
35.35,359.439
35.352,359.442
35.354,359.445
35.356,359.449
35.358,359.452
35.36,359.456
35.362,359.459
35.364,359.462
35.366,359.466
35.368,359.469
35.37,359.473
35.372,359.476
35.374,359.48
35.376,359.483
35.378,359.487
35.38,359.49
35.382,359.494
35.384,359.498
35.386,359.501
35.388,359.505
35.39,359.509
35.392,359.512
35.394,359.516
35.396,359.52
35.398,359.524
35.4,359.527
35.402,359.531
35.404,359.535
35.406,359.539
35.408,359.543
35.41,359.547
35.412,359.551
35.414,359.555
35.416,359.559
35.418,359.563
35.42,359.567
35.422,359.571
35.424,359.575
35.426,359.579
35.428,359.583
35.43,359.587
35.432,359.592
35.434,359.596
35.436,359.6
35.438,359.604
35.44,359.609
35.442,359.613
35.444,359.617
35.446,359.622
35.448,359.626
35.45,359.631
35.452,359.635
35.454,359.64
35.456,359.644
35.458,359.649
35.46,359.653
35.462,359.658
35.464,359.662
35.466,359.667
35.468,359.672
35.47,359.677
35.472,359.681
35.474,359.686
35.476,359.691
35.478,359.696
35.48,359.701
35.482,359.706
35.484,359.711
35.486,359.716
35.488,359.721
35.49,359.726
35.492,359.731
35.494,359.736
35.496,359.741
35.498,359.746
35.5,359.751
35.502,359.757
35.504,359.762
35.506,359.767
35.508,359.773
35.51,359.778
35.512,359.783
35.514,359.789
35.516,359.794
35.518,359.8
35.52,359.806
35.522,359.811
35.524,359.817
35.526,359.823
35.528,359.828
35.53,359.834
35.532,359.84
35.534,359.846
35.536,359.852
35.538,359.858
35.54,359.864
35.542,359.87
35.544,359.876
35.546,359.882
35.548,359.888
35.55,359.894
35.552,359.9
35.554,359.907
35.556,359.913
35.558,359.919
35.56,359.926
35.562,359.932
35.564,359.939
35.566,359.945
35.568,359.952
35.57,359.958
35.572,359.965
35.574,359.972
35.576,359.979
35.578,359.986
35.58,359.992
35.582,359.999
35.584,360.006
35.586,360.013
35.588,360.02
35.59,360.028
35.592,360.035
35.594,360.042
35.596,360.049
35.598,360.057
35.6,360.064
35.602,360.072
35.604,360.079
35.606,360.087
35.608,360.094
35.61,360.102
35.612,360.11
35.614,360.118
35.616,360.125
35.618,360.133
35.62,360.141
35.622,360.149
35.624,360.157
35.626,360.166
35.628,360.174
35.63,360.182
35.632,360.191
35.634,360.199
35.636,360.207
35.638,360.216
35.64,360.225
35.642,360.233
35.644,360.242
35.646,360.251
35.648,360.26
35.65,360.269
35.652,360.278
35.654,360.287
35.656,360.296
35.658,360.305
35.66,360.314
35.662,360.324
35.664,360.333
35.666,360.343
35.668,360.352
35.67,360.362
35.672,360.372
35.674,360.382
35.676,360.392
35.678,360.402
35.68,360.412
35.682,360.422
35.684,360.432
35.686,360.442
35.688,360.453
35.69,360.463
35.692,360.474
35.694,360.485
35.696,360.495
35.698,360.506
35.7,360.517
35.702,360.528
35.704,360.539
35.706,360.55
35.708,360.562
35.71,360.573
35.712,360.585
35.714,360.596
35.716,360.608
35.718,360.62
35.72,360.631
35.722,360.643
35.724,360.656
35.726,360.668
35.728,360.68
35.73,360.692
35.732,360.705
35.734,360.717
35.736,360.73
35.738,360.743
35.74,360.756
35.742,360.769
35.744,360.782
35.746,360.795
35.748,360.809
35.75,360.822
35.752,360.836
35.754,360.85
35.756,360.863
35.758,360.877
35.76,360.891
35.762,360.906
35.764,360.92
35.766,360.935
35.768,360.949
35.77,360.964
35.772,360.979
35.774,360.994
35.776,361.009
35.778,361.024
35.78,361.039
35.782,361.055
35.784,361.071
35.786,361.087
35.788,361.102
35.79,361.119
35.792,361.135
35.794,361.151
35.796,361.168
35.798,361.185
35.8,361.201
35.802,361.218
35.804,361.236
35.806,361.253
35.808,361.27
35.81,361.288
35.812,361.306
35.814,361.324
35.816,361.342
35.818,361.36
35.82,361.379
35.822,361.397
35.824,361.416
35.826,361.435
35.828,361.455
35.83,361.474
35.832,361.493
35.834,361.513
35.836,361.533
35.838,361.553
35.84,361.574
35.842,361.594
35.844,361.615
35.846,361.636
35.848,361.657
35.85,361.678
35.852,361.7
35.854,361.721
35.856,361.743
35.858,361.766
35.86,361.788
35.862,361.811
35.864,361.833
35.866,361.856
35.868,361.88
35.87,361.903
35.872,361.927
35.874,361.951
35.876,361.975
35.878,362
35.88,362.024
35.882,362.049
35.884,362.074
35.886,362.1
35.888,362.126
35.89,362.151
35.892,362.178
35.894,362.204
35.896,362.231
35.898,362.258
35.9,362.285
35.902,362.313
35.904,362.341
35.906,362.369
35.908,362.397
35.91,362.426
35.912,362.455
35.914,362.484
35.916,362.514
35.918,362.544
35.92,362.574
35.922,362.604
35.924,362.635
35.926,362.666
35.928,362.698
35.93,362.73
35.932,362.762
35.934,362.794
35.936,362.827
35.938,362.86
35.94,362.894
35.942,362.928
35.944,362.962
35.946,362.996
35.948,363.031
35.95,363.067
35.952,363.102
35.954,363.138
35.956,363.175
35.958,363.211
35.96,363.249
35.962,363.286
35.964,363.324
35.966,363.363
35.968,363.401
35.97,363.441
35.972,363.48
35.974,363.52
35.976,363.561
35.978,363.602
35.98,363.643
35.982,363.685
35.984,363.727
35.986,363.769
35.988,363.812
35.99,363.856
35.992,363.9
35.994,363.945
35.996,363.989
35.998,364.035
36,364.081
36.002,364.127
36.004,364.174
36.006,364.221
36.008,364.269
36.01,364.318
36.012,364.367
36.014,364.416
36.016,364.466
36.018,364.517
36.02,364.568
36.022,364.619
36.024,364.671
36.026,364.724
36.028,364.777
36.03,364.831
36.032,364.885
36.034,364.94
36.036,364.995
36.038,365.051
36.04,365.108
36.042,365.165
36.044,365.223
36.046,365.281
36.048,365.34
36.05,365.4
36.052,365.46
36.054,365.521
36.056,365.582
36.058,365.644
36.06,365.707
36.062,365.77
36.064,365.834
36.066,365.898
36.068,365.964
36.07,366.029
36.072,366.096
36.074,366.163
36.076,366.231
36.078,366.299
36.08,366.368
36.082,366.438
36.084,366.508
36.086,366.579
36.088,366.651
36.09,366.723
36.092,366.796
36.094,366.87
36.096,366.945
36.098,367.02
36.1,367.095
36.102,367.172
36.104,367.249
36.106,367.326
36.108,367.405
36.11,367.484
36.112,367.563
36.114,367.643
36.116,367.724
36.118,367.806
36.12,367.888
36.122,367.971
36.124,368.055
36.126,368.139
36.128,368.223
36.13,368.309
36.132,368.395
36.134,368.481
36.136,368.568
36.138,368.656
36.14,368.744
36.142,368.833
36.144,368.922
36.146,369.012
36.148,369.102
36.15,369.193
36.152,369.284
36.154,369.376
36.156,369.468
36.158,369.561
36.16,369.654
36.162,369.748
36.164,369.842
36.166,369.936
36.168,370.03
36.17,370.125
36.172,370.22
36.174,370.316
36.176,370.411
36.178,370.507
36.18,370.603
36.182,370.699
36.184,370.795
36.186,370.892
36.188,370.988
36.19,371.084
36.192,371.181
36.194,371.277
36.196,371.373
36.198,371.469
36.2,371.565
36.202,371.661
36.204,371.757
36.206,371.852
36.208,371.947
36.21,372.041
36.212,372.135
36.214,372.229
36.216,372.322
36.218,372.414
36.22,372.506
36.222,372.597
36.224,372.688
36.226,372.778
36.228,372.867
36.23,372.955
36.232,373.042
36.234,373.128
36.236,373.213
36.238,373.297
36.24,373.38
36.242,373.462
36.244,373.542
36.246,373.621
36.248,373.699
36.25,373.776
36.252,373.85
36.254,373.924
36.256,373.996
36.258,374.066
36.26,374.134
36.262,374.201
36.264,374.266
36.266,374.329
36.268,374.39
36.27,374.45
36.272,374.507
36.274,374.562
36.276,374.615
36.278,374.666
36.28,374.715
36.282,374.761
36.284,374.806
36.286,374.848
36.288,374.887
36.29,374.925
36.292,374.959
36.294,374.992
36.296,375.022
36.298,375.049
36.3,375.074
36.302,375.096
36.304,375.116
36.306,375.133
36.308,375.148
36.31,375.16
36.312,375.169
36.314,375.176
36.316,375.18
36.318,375.181
36.32,375.18
36.322,375.176
36.324,375.169
36.326,375.16
36.328,375.148
36.33,375.133
36.332,375.116
36.334,375.096
36.336,375.074
36.338,375.049
36.34,375.022
36.342,374.992
36.344,374.959
36.346,374.925
36.348,374.887
36.35,374.848
36.352,374.806
36.354,374.761
36.356,374.715
36.358,374.666
36.36,374.615
36.362,374.562
36.364,374.507
36.366,374.45
36.368,374.39
36.37,374.329
36.372,374.266
36.374,374.201
36.376,374.134
36.378,374.066
36.38,373.996
36.382,373.924
36.384,373.85
36.386,373.776
36.388,373.699
36.39,373.621
36.392,373.542
36.394,373.462
36.396,373.38
36.398,373.297
36.4,373.213
36.402,373.128
36.404,373.042
36.406,372.955
36.408,372.867
36.41,372.778
36.412,372.688
36.414,372.597
36.416,372.506
36.418,372.414
36.42,372.322
36.422,372.229
36.424,372.135
36.426,372.041
36.428,371.947
36.43,371.852
36.432,371.757
36.434,371.661
36.436,371.565
36.438,371.469
36.44,371.373
36.442,371.277
36.444,371.181
36.446,371.084
36.448,370.988
36.45,370.892
36.452,370.795
36.454,370.699
36.456,370.603
36.458,370.507
36.46,370.411
36.462,370.316
36.464,370.22
36.466,370.125
36.468,370.03
36.47,369.936
36.472,369.842
36.474,369.748
36.476,369.654
36.478,369.561
36.48,369.468
36.482,369.376
36.484,369.284
36.486,369.193
36.488,369.102
36.49,369.012
36.492,368.922
36.494,368.833
36.496,368.744
36.498,368.656
36.5,368.568
36.502,368.481
36.504,368.395
36.506,368.309
36.508,368.223
36.51,368.139
36.512,368.055
36.514,367.971
36.516,367.888
36.518,367.806
36.52,367.724
36.522,367.643
36.524,367.563
36.526,367.484
36.528,367.405
36.53,367.326
36.532,367.249
36.534,367.172
36.536,367.095
36.538,367.02
36.54,366.945
36.542,366.87
36.544,366.796
36.546,366.723
36.548,366.651
36.55,366.579
36.552,366.508
36.554,366.438
36.556,366.368
36.558,366.299
36.56,366.231
36.562,366.163
36.564,366.096
36.566,366.029
36.568,365.964
36.57,365.898
36.572,365.834
36.574,365.77
36.576,365.707
36.578,365.644
36.58,365.582
36.582,365.521
36.584,365.46
36.586,365.4
36.588,365.34
36.59,365.281
36.592,365.223
36.594,365.165
36.596,365.108
36.598,365.051
36.6,364.995
36.602,364.94
36.604,364.885
36.606,364.831
36.608,364.777
36.61,364.724
36.612,364.671
36.614,364.619
36.616,364.568
36.618,364.517
36.62,364.466
36.622,364.416
36.624,364.367
36.626,364.318
36.628,364.269
36.63,364.221
36.632,364.174
36.634,364.127
36.636,364.081
36.638,364.035
36.64,363.989
36.642,363.945
36.644,363.9
36.646,363.856
36.648,363.812
36.65,363.769
36.652,363.727
36.654,363.685
36.656,363.643
36.658,363.602
36.66,363.561
36.662,363.52
36.664,363.48
36.666,363.441
36.668,363.401
36.67,363.363
36.672,363.324
36.674,363.286
36.676,363.249
36.678,363.211
36.68,363.175
36.682,363.138
36.684,363.102
36.686,363.067
36.688,363.031
36.69,362.996
36.692,362.962
36.694,362.928
36.696,362.894
36.698,362.86
36.7,362.827
36.702,362.794
36.704,362.762
36.706,362.73
36.708,362.698
36.71,362.666
36.712,362.635
36.714,362.604
36.716,362.574
36.718,362.544
36.72,362.514
36.722,362.484
36.724,362.455
36.726,362.426
36.728,362.397
36.73,362.369
36.732,362.341
36.734,362.313
36.736,362.285
36.738,362.258
36.74,362.231
36.742,362.204
36.744,362.178
36.746,362.151
36.748,362.126
36.75,362.1
36.752,362.074
36.754,362.049
36.756,362.024
36.758,362
36.76,361.975
36.762,361.951
36.764,361.927
36.766,361.903
36.768,361.88
36.77,361.856
36.772,361.833
36.774,361.811
36.776,361.788
36.778,361.766
36.78,361.743
36.782,361.721
36.784,361.7
36.786,361.678
36.788,361.657
36.79,361.636
36.792,361.615
36.794,361.594
36.796,361.574
36.798,361.553
36.8,361.533
36.802,361.513
36.804,361.493
36.806,361.474
36.808,361.455
36.81,361.435
36.812,361.416
36.814,361.397
36.816,361.379
36.818,361.36
36.82,361.342
36.822,361.324
36.824,361.306
36.826,361.288
36.828,361.27
36.83,361.253
36.832,361.236
36.834,361.218
36.836,361.201
36.838,361.185
36.84,361.168
36.842,361.151
36.844,361.135
36.846,361.119
36.848,361.102
36.85,361.087
36.852,361.071
36.854,361.055
36.856,361.039
36.858,361.024
36.86,361.009
36.862,360.994
36.864,360.979
36.866,360.964
36.868,360.949
36.87,360.935
36.872,360.92
36.874,360.906
36.876,360.891
36.878,360.877
36.88,360.863
36.882,360.85
36.884,360.836
36.886,360.822
36.888,360.809
36.89,360.795
36.892,360.782
36.894,360.769
36.896,360.756
36.898,360.743
36.9,360.73
36.902,360.717
36.904,360.705
36.906,360.692
36.908,360.68
36.91,360.668
36.912,360.656
36.914,360.643
36.916,360.631
36.918,360.62
36.92,360.608
36.922,360.596
36.924,360.585
36.926,360.573
36.928,360.562
36.93,360.55
36.932,360.539
36.934,360.528
36.936,360.517
36.938,360.506
36.94,360.495
36.942,360.485
36.944,360.474
36.946,360.463
36.948,360.453
36.95,360.442
36.952,360.432
36.954,360.422
36.956,360.412
36.958,360.402
36.96,360.392
36.962,360.382
36.964,360.372
36.966,360.362
36.968,360.352
36.97,360.343
36.972,360.333
36.974,360.324
36.976,360.314
36.978,360.305
36.98,360.296
36.982,360.287
36.984,360.278
36.986,360.269
36.988,360.26
36.99,360.251
36.992,360.242
36.994,360.233
36.996,360.225
36.998,360.216
37,360.207
37.002,360.199
37.004,360.191
37.006,360.182
37.008,360.174
37.01,360.166
37.012,360.157
37.014,360.149
37.016,360.141
37.018,360.133
37.02,360.125
37.022,360.118
37.024,360.11
37.026,360.102
37.028,360.094
37.03,360.087
37.032,360.079
37.034,360.072
37.036,360.064
37.038,360.057
37.04,360.049
37.042,360.042
37.044,360.035
37.046,360.028
37.048,360.02
37.05,360.013
37.052,360.006
37.054,359.999
37.056,359.992
37.058,359.986
37.06,359.979
37.062,359.972
37.064,359.965
37.066,359.958
37.068,359.952
37.07,359.945
37.072,359.939
37.074,359.932
37.076,359.926
37.078,359.919
37.08,359.913
37.082,359.907
37.084,359.9
37.086,359.894
37.088,359.888
37.09,359.882
37.092,359.876
37.094,359.87
37.096,359.864
37.098,359.858
37.1,359.852
37.102,359.846
37.104,359.84
37.106,359.834
37.108,359.828
37.11,359.823
37.112,359.817
37.114,359.811
37.116,359.806
37.118,359.8
37.12,359.794
37.122,359.789
37.124,359.783
37.126,359.778
37.128,359.773
37.13,359.767
37.132,359.762
37.134,359.757
37.136,359.751
37.138,359.746
37.14,359.741
37.142,359.736
37.144,359.731
37.146,359.726
37.148,359.721
37.15,359.716
37.152,359.711
37.154,359.706
37.156,359.701
37.158,359.696
37.16,359.691
37.162,359.686
37.164,359.681
37.166,359.677
37.168,359.672
37.17,359.667
37.172,359.662
37.174,359.658
37.176,359.653
37.178,359.649
37.18,359.644
37.182,359.64
37.184,359.635
37.186,359.631
37.188,359.626
37.19,359.622
37.192,359.617
37.194,359.613
37.196,359.609
37.198,359.604
37.2,359.6
37.202,359.596
37.204,359.592
37.206,359.587
37.208,359.583
37.21,359.579
37.212,359.575
37.214,359.571
37.216,359.567
37.218,359.563
37.22,359.559
37.222,359.555
37.224,359.551
37.226,359.547
37.228,359.543
37.23,359.539
37.232,359.535
37.234,359.531
37.236,359.527
37.238,359.524
37.24,359.52
37.242,359.516
37.244,359.512
37.246,359.509
37.248,359.505
37.25,359.501
37.252,359.498
37.254,359.494
37.256,359.49
37.258,359.487
37.26,359.483
37.262,359.48
37.264,359.476
37.266,359.473
37.268,359.469
37.27,359.466
37.272,359.462
37.274,359.459
37.276,359.456
37.278,359.452
37.28,359.449
37.282,359.445
37.284,359.442
37.286,359.439
37.288,359.436
37.29,359.432
37.292,359.429
37.294,359.426
37.296,359.423
37.298,359.419
37.3,359.416
37.302,359.413
37.304,359.41
37.306,359.407
37.308,359.404
37.31,359.401
37.312,359.398
37.314,359.395
37.316,359.392
37.318,359.389
37.32,359.386
37.322,359.383
37.324,359.38
37.326,359.377
37.328,359.374
37.33,359.371
37.332,359.368
37.334,359.365
37.336,359.362
37.338,359.359
37.34,359.356
37.342,359.354
37.344,359.351
37.346,359.348
37.348,359.345
37.35,359.343
37.352,359.34
37.354,359.337
37.356,359.334
37.358,359.332
37.36,359.329
37.362,359.326
37.364,359.324
37.366,359.321
37.368,359.318
37.37,359.316
37.372,359.313
37.374,359.311
37.376,359.308
37.378,359.305
37.38,359.303
37.382,359.3
37.384,359.298
37.386,359.295
37.388,359.293
37.39,359.29
37.392,359.288
37.394,359.286
37.396,359.283
37.398,359.281
37.4,359.278
37.402,359.276
37.404,359.273
37.406,359.271
37.408,359.269
37.41,359.266
37.412,359.264
37.414,359.262
37.416,359.259
37.418,359.257
37.42,359.255
37.422,359.253
37.424,359.25
37.426,359.248
37.428,359.246
37.43,359.244
37.432,359.241
37.434,359.239
37.436,359.237
37.438,359.235
37.44,359.233
37.442,359.23
37.444,359.228
37.446,359.226
37.448,359.224
37.45,359.222
37.452,359.22
37.454,359.218
37.456,359.216
37.458,359.213
37.46,359.211
37.462,359.209
37.464,359.207
37.466,359.205
37.468,359.203
37.47,359.201
37.472,359.199
37.474,359.197
37.476,359.195
37.478,359.193
37.48,359.191
37.482,359.189
37.484,359.187
37.486,359.185
37.488,359.184
37.49,359.182
37.492,359.18
37.494,359.178
37.496,359.176
37.498,359.174
37.5,359.172
37.502,359.17
37.504,359.168
37.506,359.167
37.508,359.165
37.51,359.163
37.512,359.161
37.514,359.159
37.516,359.157
37.518,359.156
37.52,359.154
37.522,359.152
37.524,359.15
37.526,359.149
37.528,359.147
37.53,359.145
37.532,359.143
37.534,359.142
37.536,359.14
37.538,359.138
37.54,359.136
37.542,359.135
37.544,359.133
37.546,359.131
37.548,359.13
37.55,359.128
37.552,359.126
37.554,359.125
37.556,359.123
37.558,359.122
37.56,359.12
37.562,359.118
37.564,359.117
37.566,359.115
37.568,359.113
37.57,359.112
37.572,359.11
37.574,359.109
37.576,359.107
37.578,359.106
37.58,359.104
37.582,359.102
37.584,359.101
37.586,359.099
37.588,359.098
37.59,359.096
37.592,359.095
37.594,359.093
37.596,359.092
37.598,359.09
37.6,359.089
37.602,359.087
37.604,359.086
37.606,359.084
37.608,359.083
37.61,359.082
37.612,359.08
37.614,359.079
37.616,359.077
37.618,359.076
37.62,359.074
37.622,359.073
37.624,359.072
37.626,359.07
37.628,359.069
37.63,359.067
37.632,359.066
37.634,359.065
37.636,359.063
37.638,359.062
37.64,359.061
37.642,359.059
37.644,359.058
37.646,359.057
37.648,359.055
37.65,359.054
37.652,359.053
37.654,359.051
37.656,359.05
37.658,359.049
37.66,359.047
37.662,359.046
37.664,359.045
37.666,359.043
37.668,359.042
37.67,359.041
37.672,359.04
37.674,359.038
37.676,359.037
37.678,359.036
37.68,359.035
37.682,359.033
37.684,359.032
37.686,359.031
37.688,359.03
37.69,359.028
37.692,359.027
37.694,359.026
37.696,359.025
37.698,359.024
37.7,359.022
37.702,359.021
37.704,359.02
37.706,359.019
37.708,359.018
37.71,359.017
37.712,359.015
37.714,359.014
37.716,359.013
37.718,359.012
37.72,359.011
37.722,359.01
37.724,359.008
37.726,359.007
37.728,359.006
37.73,359.005
37.732,359.004
37.734,359.003
37.736,359.002
37.738,359.001
37.74,359
37.742,358.998
37.744,358.997
37.746,358.996
37.748,358.995
37.75,358.994
37.752,358.993
37.754,358.992
37.756,358.991
37.758,358.99
37.76,358.989
37.762,358.988
37.764,358.987
37.766,358.986
37.768,358.985
37.77,358.984
37.772,358.983
37.774,358.982
37.776,358.981
37.778,358.98
37.78,358.978
37.782,358.977
37.784,358.976
37.786,358.975
37.788,358.974
37.79,358.973
37.792,358.972
37.794,358.972
37.796,358.971
37.798,358.97
37.8,358.969
37.802,358.968
37.804,358.967
37.806,358.966
37.808,358.965
37.81,358.964
37.812,358.963
37.814,358.962
37.816,358.961
37.818,358.96
37.82,358.959
37.822,358.958
37.824,358.957
37.826,358.956
37.828,358.955
37.83,358.954
37.832,358.953
37.834,358.953
37.836,358.952
37.838,358.951
37.84,358.95
37.842,358.949
37.844,358.948
37.846,358.947
37.848,358.946
37.85,358.945
37.852,358.945
37.854,358.944
37.856,358.943
37.858,358.942
37.86,358.941
37.862,358.94
37.864,358.939
37.866,358.938
37.868,358.938
37.87,358.937
37.872,358.936
37.874,358.935
37.876,358.934
37.878,358.933
37.88,358.933
37.882,358.932
37.884,358.931
37.886,358.93
37.888,358.929
37.89,358.928
37.892,358.928
37.894,358.927
37.896,358.926
37.898,358.925
37.9,358.924
37.902,358.924
37.904,358.923
37.906,358.922
37.908,358.921
37.91,358.92
37.912,358.92
37.914,358.919
37.916,358.918
37.918,358.917
37.92,358.916
37.922,358.916
37.924,358.915
37.926,358.914
37.928,358.913
37.93,358.913
37.932,358.912
37.934,358.911
37.936,358.91
37.938,358.91
37.94,358.909
37.942,358.908
37.944,358.907
37.946,358.907
37.948,358.906
37.95,358.905
37.952,358.904
37.954,358.904
37.956,358.903
37.958,358.902
37.96,358.901
37.962,358.901
37.964,358.9
37.966,358.899
37.968,358.899
37.97,358.898
37.972,358.897
37.974,358.896
37.976,358.896
37.978,358.895
37.98,358.894
37.982,358.894
37.984,358.893
37.986,358.892
37.988,358.892
37.99,358.891
37.992,358.89
37.994,358.89
37.996,358.889
37.998,358.888
37.999,358.888