File: pb/bose_2007/7nm/xrd/curve_1_fit.dat
35.0,0.563836
35.002,0.56546
35.004,0.56709
35.006,0.568728
35.008,0.570372
35.01,0.572024
35.012,0.573682
35.014,0.575348
35.016,0.57702
35.018,0.5787
35.02,0.580387
35.022,0.582082
35.024,0.583783
35.026,0.585492
35.028,0.587208
35.03,0.588931
35.032,0.590662
35.034,0.592401
35.036,0.594147
35.038,0.5959
35.04,0.597661
35.042,0.59943
35.044,0.601206
35.046,0.60299
35.048,0.604782
35.05,0.606582
35.052,0.608389
35.054,0.610205
35.056,0.612028
35.058,0.613859
35.06,0.615699
35.062,0.617546
35.064,0.619402
35.066,0.621266
35.068,0.623138
35.07,0.625018
35.072,0.626907
35.074,0.628804
35.076,0.630709
35.078,0.632623
35.08,0.634545
35.082,0.636476
35.084,0.638416
35.086,0.640364
35.088,0.642321
35.09,0.644286
35.092,0.646261
35.094,0.648244
35.096,0.650236
35.098,0.652237
35.1,0.654248
35.102,0.656267
35.104,0.658295
35.106,0.660333
35.108,0.66238
35.11,0.664436
35.112,0.666501
35.114,0.668576
35.116,0.67066
35.118,0.672754
35.12,0.674857
35.122,0.67697
35.124,0.679093
35.126,0.681225
35.128,0.683367
35.13,0.685519
35.132,0.687681
35.134,0.689853
35.136,0.692035
35.138,0.694227
35.14,0.696429
35.142,0.698642
35.144,0.700864
35.146,0.703097
35.148,0.705341
35.15,0.707594
35.152,0.709859
35.154,0.712134
35.156,0.714419
35.158,0.716715
35.16,0.719022
35.162,0.72134
35.164,0.723669
35.166,0.726009
35.168,0.72836
35.17,0.730722
35.172,0.733095
35.174,0.735479
35.176,0.737875
35.178,0.740282
35.18,0.7427
35.182,0.74513
35.184,0.747572
35.186,0.750025
35.188,0.75249
35.19,0.754967
35.192,0.757456
35.194,0.759956
35.196,0.762469
35.198,0.764994
35.2,0.767531
35.202,0.77008
35.204,0.772642
35.206,0.775216
35.208,0.777802
35.21,0.780401
35.212,0.783013
35.214,0.785637
35.216,0.788275
35.218,0.790925
35.22,0.793588
35.222,0.796264
35.224,0.798953
35.226,0.801656
35.228,0.804371
35.23,0.807101
35.232,0.809843
35.234,0.812599
35.236,0.815369
35.238,0.818153
35.24,0.82095
35.242,0.823761
35.244,0.826586
35.246,0.829426
35.248,0.832279
35.25,0.835147
35.252,0.838029
35.254,0.840926
35.256,0.843837
35.258,0.846763
35.26,0.849703
35.262,0.852658
35.264,0.855628
35.266,0.858614
35.268,0.861614
35.27,0.86463
35.272,0.86766
35.274,0.870707
35.276,0.873768
35.278,0.876846
35.28,0.879939
35.282,0.883048
35.284,0.886173
35.286,0.889314
35.288,0.892471
35.29,0.895644
35.292,0.898833
35.294,0.902039
35.296,0.905262
35.298,0.908501
35.3,0.911757
35.302,0.91503
35.304,0.91832
35.306,0.921627
35.308,0.924951
35.31,0.928293
35.312,0.931652
35.314,0.935029
35.316,0.938423
35.318,0.941835
35.32,0.945266
35.322,0.948714
35.324,0.95218
35.326,0.955665
35.328,0.959168
35.33,0.962689
35.332,0.96623
35.334,0.969789
35.336,0.973367
35.338,0.976964
35.34,0.98058
35.342,0.984216
35.344,0.987871
35.346,0.991546
35.348,0.99524
35.35,0.998954
35.352,1.00269
35.354,1.00644
35.356,1.01022
35.358,1.01401
35.36,1.01783
35.362,1.02166
35.364,1.02552
35.366,1.0294
35.368,1.0333
35.37,1.03722
35.372,1.04116
35.374,1.04512
35.376,1.04911
35.378,1.05311
35.38,1.05714
35.382,1.06119
35.384,1.06527
35.386,1.06936
35.388,1.07348
35.39,1.07762
35.392,1.08179
35.394,1.08598
35.396,1.09019
35.398,1.09442
35.4,1.09868
35.402,1.10296
35.404,1.10726
35.406,1.11159
35.408,1.11595
35.41,1.12033
35.412,1.12473
35.414,1.12916
35.416,1.13361
35.418,1.13809
35.42,1.14259
35.422,1.14712
35.424,1.15167
35.426,1.15625
35.428,1.16086
35.43,1.16549
35.432,1.17015
35.434,1.17483
35.436,1.17955
35.438,1.18429
35.44,1.18905
35.442,1.19385
35.444,1.19867
35.446,1.20352
35.448,1.20839
35.45,1.2133
35.452,1.21823
35.454,1.2232
35.456,1.22819
35.458,1.23321
35.46,1.23826
35.462,1.24334
35.464,1.24845
35.466,1.25359
35.468,1.25875
35.47,1.26395
35.472,1.26918
35.474,1.27444
35.476,1.27974
35.478,1.28506
35.48,1.29041
35.482,1.2958
35.484,1.30122
35.486,1.30667
35.488,1.31215
35.49,1.31766
35.492,1.32321
35.494,1.32879
35.496,1.33441
35.498,1.34006
35.5,1.34574
35.502,1.35146
35.504,1.35721
35.506,1.36299
35.508,1.36881
35.51,1.37467
35.512,1.38056
35.514,1.38649
35.516,1.39245
35.518,1.39845
35.52,1.40448
35.522,1.41056
35.524,1.41666
35.526,1.42281
35.528,1.429
35.53,1.43522
35.532,1.44148
35.534,1.44778
35.536,1.45412
35.538,1.46049
35.54,1.46691
35.542,1.47337
35.544,1.47986
35.546,1.4864
35.548,1.49297
35.55,1.49959
35.552,1.50625
35.554,1.51295
35.556,1.51969
35.558,1.52648
35.56,1.53331
35.562,1.54018
35.564,1.54709
35.566,1.55405
35.568,1.56105
35.57,1.56809
35.572,1.57518
35.574,1.58232
35.576,1.5895
35.578,1.59672
35.58,1.60399
35.582,1.61131
35.584,1.61867
35.586,1.62608
35.588,1.63354
35.59,1.64105
35.592,1.6486
35.594,1.6562
35.596,1.66385
35.598,1.67155
35.6,1.6793
35.602,1.68711
35.604,1.69496
35.606,1.70286
35.608,1.71081
35.61,1.71881
35.612,1.72687
35.614,1.73498
35.616,1.74314
35.618,1.75135
35.62,1.75962
35.622,1.76794
35.624,1.77632
35.626,1.78475
35.628,1.79324
35.63,1.80178
35.632,1.81038
35.634,1.81904
35.636,1.82775
35.638,1.83652
35.64,1.84535
35.642,1.85423
35.644,1.86318
35.646,1.87218
35.648,1.88125
35.65,1.89037
35.652,1.89956
35.654,1.90881
35.656,1.91812
35.658,1.92749
35.66,1.93692
35.662,1.94642
35.664,1.95598
35.666,1.96561
35.668,1.9753
35.67,1.98505
35.672,1.99487
35.674,2.00476
35.676,2.01472
35.678,2.02474
35.68,2.03483
35.682,2.04499
35.684,2.05521
35.686,2.06551
35.688,2.07588
35.69,2.08631
35.692,2.09682
35.694,2.1074
35.696,2.11806
35.698,2.12878
35.7,2.13958
35.702,2.15045
35.704,2.1614
35.706,2.17242
35.708,2.18352
35.71,2.1947
35.712,2.20595
35.714,2.21728
35.716,2.22869
35.718,2.24018
35.72,2.25174
35.722,2.26339
35.724,2.27512
35.726,2.28693
35.728,2.29882
35.73,2.31079
35.732,2.32285
35.734,2.33499
35.736,2.34721
35.738,2.35952
35.74,2.37192
35.742,2.3844
35.744,2.39697
35.746,2.40963
35.748,2.42238
35.75,2.43521
35.752,2.44814
35.754,2.46116
35.756,2.47427
35.758,2.48747
35.76,2.50076
35.762,2.51415
35.764,2.52763
35.766,2.5412
35.768,2.55488
35.77,2.56864
35.772,2.58251
35.774,2.59647
35.776,2.61053
35.778,2.6247
35.78,2.63896
35.782,2.65332
35.784,2.66778
35.786,2.68235
35.788,2.69702
35.79,2.7118
35.792,2.72667
35.794,2.74166
35.796,2.75675
35.798,2.77195
35.8,2.78725
35.802,2.80267
35.804,2.81819
35.806,2.83382
35.808,2.84957
35.81,2.86543
35.812,2.8814
35.814,2.89748
35.816,2.91368
35.818,2.92999
35.82,2.94642
35.822,2.96296
35.824,2.97963
35.826,2.99641
35.828,3.01331
35.83,3.03033
35.832,3.04747
35.834,3.06474
35.836,3.08212
35.838,3.09963
35.84,3.11727
35.842,3.13503
35.844,3.15291
35.846,3.17092
35.848,3.18906
35.85,3.20733
35.852,3.22573
35.854,3.24426
35.856,3.26292
35.858,3.28171
35.86,3.30063
35.862,3.31969
35.864,3.33888
35.866,3.35821
35.868,3.37767
35.87,3.39727
35.872,3.417
35.874,3.43688
35.876,3.4569
35.878,3.47705
35.88,3.49735
35.882,3.51779
35.884,3.53837
35.886,3.55909
35.888,3.57996
35.89,3.60097
35.892,3.62213
35.894,3.64344
35.896,3.66489
35.898,3.68649
35.9,3.70824
35.902,3.73014
35.904,3.75219
35.906,3.77439
35.908,3.79675
35.91,3.81925
35.912,3.84191
35.914,3.86473
35.916,3.88769
35.918,3.91082
35.92,3.9341
35.922,3.95753
35.924,3.98113
35.926,4.00488
35.928,4.02879
35.93,4.05286
35.932,4.07708
35.934,4.10147
35.936,4.12602
35.938,4.15073
35.94,4.1756
35.942,4.20064
35.944,4.22584
35.946,4.2512
35.948,4.27672
35.95,4.30241
35.952,4.32826
35.954,4.35428
35.956,4.38046
35.958,4.40681
35.96,4.43332
35.962,4.46
35.964,4.48684
35.966,4.51385
35.968,4.54103
35.97,4.56838
35.972,4.59589
35.974,4.62356
35.976,4.65141
35.978,4.67942
35.98,4.70759
35.982,4.73594
35.984,4.76444
35.986,4.79312
35.988,4.82196
35.99,4.85097
35.992,4.88014
35.994,4.90948
35.996,4.93898
35.998,4.96865
36,4.99848
36.002,5.02847
36.004,5.05863
36.006,5.08894
36.008,5.11942
36.01,5.15006
36.012,5.18086
36.014,5.21182
36.016,5.24293
36.018,5.2742
36.02,5.30563
36.022,5.33721
36.024,5.36895
36.026,5.40084
36.028,5.43287
36.03,5.46506
36.032,5.4974
36.034,5.52988
36.036,5.56251
36.038,5.59528
36.04,5.62819
36.042,5.66124
36.044,5.69443
36.046,5.72775
36.048,5.76121
36.05,5.7948
36.052,5.82852
36.054,5.86236
36.056,5.89633
36.058,5.93042
36.06,5.96463
36.062,5.99896
36.064,6.0334
36.066,6.06795
36.068,6.1026
36.07,6.13737
36.072,6.17223
36.074,6.20719
36.076,6.24224
36.078,6.27739
36.08,6.31262
36.082,6.34794
36.084,6.38333
36.086,6.41881
36.088,6.45435
36.09,6.48996
36.092,6.52563
36.094,6.56136
36.096,6.59715
36.098,6.63298
36.1,6.66886
36.102,6.70478
36.104,6.74074
36.106,6.77672
36.108,6.81273
36.11,6.84876
36.112,6.8848
36.114,6.92084
36.116,6.95689
36.118,6.99294
36.12,7.02897
36.122,7.06499
36.124,7.10099
36.126,7.13696
36.128,7.17289
36.13,7.20879
36.132,7.24463
36.134,7.28042
36.136,7.31615
36.138,7.3518
36.14,7.38738
36.142,7.42288
36.144,7.45829
36.146,7.4936
36.148,7.5288
36.15,7.56388
36.152,7.59885
36.154,7.63369
36.156,7.66838
36.158,7.70294
36.16,7.73733
36.162,7.77157
36.164,7.80563
36.166,7.83952
36.168,7.87322
36.17,7.90672
36.172,7.94001
36.174,7.97309
36.176,8.00595
36.178,8.03858
36.18,8.07096
36.182,8.1031
36.184,8.13497
36.186,8.16658
36.188,8.19791
36.19,8.22895
36.192,8.2597
36.194,8.29014
36.196,8.32026
36.198,8.35006
36.2,8.37953
36.202,8.40866
36.204,8.43743
36.206,8.46584
36.208,8.49389
36.21,8.52155
36.212,8.54882
36.214,8.57569
36.216,8.60216
36.218,8.62821
36.22,8.65383
36.222,8.67902
36.224,8.70377
36.226,8.72806
36.228,8.75189
36.23,8.77525
36.232,8.79813
36.234,8.82052
36.236,8.84242
36.238,8.86382
36.24,8.8847
36.242,8.90507
36.244,8.9249
36.246,8.9442
36.248,8.96296
36.25,8.98117
36.252,8.99881
36.254,9.0159
36.256,9.03241
36.258,9.04835
36.26,9.0637
36.262,9.07846
36.264,9.09262
36.266,9.10619
36.268,9.11914
36.27,9.13148
36.272,9.1432
36.274,9.1543
36.276,9.16477
36.278,9.1746
36.28,9.1838
36.282,9.19236
36.284,9.20028
36.286,9.20755
36.288,9.21416
36.29,9.22013
36.292,9.22543
36.294,9.23008
36.296,9.23407
36.298,9.2374
36.3,9.24006
36.302,9.24206
36.304,9.24339
36.306,9.24406
36.308,9.24406
36.31,9.24339
36.312,9.24206
36.314,9.24006
36.316,9.2374
36.318,9.23407
36.32,9.23008
36.322,9.22543
36.324,9.22013
36.326,9.21416
36.328,9.20755
36.33,9.20028
36.332,9.19236
36.334,9.1838
36.336,9.1746
36.338,9.16477
36.34,9.1543
36.342,9.1432
36.344,9.13148
36.346,9.11914
36.348,9.10619
36.35,9.09262
36.352,9.07846
36.354,9.0637
36.356,9.04835
36.358,9.03241
36.36,9.0159
36.362,8.99881
36.364,8.98117
36.366,8.96296
36.368,8.9442
36.37,8.9249
36.372,8.90507
36.374,8.8847
36.376,8.86382
36.378,8.84242
36.38,8.82052
36.382,8.79813
36.384,8.77525
36.386,8.75189
36.388,8.72806
36.39,8.70377
36.392,8.67902
36.394,8.65383
36.396,8.62821
36.398,8.60216
36.4,8.57569
36.402,8.54882
36.404,8.52155
36.406,8.49389
36.408,8.46584
36.41,8.43743
36.412,8.40866
36.414,8.37953
36.416,8.35006
36.418,8.32026
36.42,8.29014
36.422,8.2597
36.424,8.22895
36.426,8.19791
36.428,8.16658
36.43,8.13497
36.432,8.1031
36.434,8.07096
36.436,8.03858
36.438,8.00595
36.44,7.97309
36.442,7.94001
36.444,7.90672
36.446,7.87322
36.448,7.83952
36.45,7.80563
36.452,7.77157
36.454,7.73733
36.456,7.70294
36.458,7.66838
36.46,7.63369
36.462,7.59885
36.464,7.56388
36.466,7.5288
36.468,7.4936
36.47,7.45829
36.472,7.42288
36.474,7.38738
36.476,7.3518
36.478,7.31615
36.48,7.28042
36.482,7.24463
36.484,7.20879
36.486,7.17289
36.488,7.13696
36.49,7.10099
36.492,7.06499
36.494,7.02897
36.496,6.99294
36.498,6.95689
36.5,6.92084
36.502,6.8848
36.504,6.84876
36.506,6.81273
36.508,6.77672
36.51,6.74074
36.512,6.70478
36.514,6.66886
36.516,6.63298
36.518,6.59715
36.52,6.56136
36.522,6.52563
36.524,6.48996
36.526,6.45435
36.528,6.41881
36.53,6.38333
36.532,6.34794
36.534,6.31262
36.536,6.27739
36.538,6.24224
36.54,6.20719
36.542,6.17223
36.544,6.13737
36.546,6.1026
36.548,6.06795
36.55,6.0334
36.552,5.99896
36.554,5.96463
36.556,5.93042
36.558,5.89633
36.56,5.86236
36.562,5.82852
36.564,5.7948
36.566,5.76121
36.568,5.72775
36.57,5.69443
36.572,5.66124
36.574,5.62819
36.576,5.59528
36.578,5.56251
36.58,5.52988
36.582,5.4974
36.584,5.46506
36.586,5.43287
36.588,5.40084
36.59,5.36895
36.592,5.33721
36.594,5.30563
36.596,5.2742
36.598,5.24293
36.6,5.21182
36.602,5.18086
36.604,5.15006
36.606,5.11942
36.608,5.08894
36.61,5.05863
36.612,5.02847
36.614,4.99848
36.616,4.96865
36.618,4.93898
36.62,4.90948
36.622,4.88014
36.624,4.85097
36.626,4.82196
36.628,4.79312
36.63,4.76444
36.632,4.73594
36.634,4.70759
36.636,4.67942
36.638,4.65141
36.64,4.62356
36.642,4.59589
36.644,4.56838
36.646,4.54103
36.648,4.51385
36.65,4.48684
36.652,4.46
36.654,4.43332
36.656,4.40681
36.658,4.38046
36.66,4.35428
36.662,4.32826
36.664,4.30241
36.666,4.27672
36.668,4.2512
36.67,4.22584
36.672,4.20064
36.674,4.1756
36.676,4.15073
36.678,4.12602
36.68,4.10147
36.682,4.07708
36.684,4.05286
36.686,4.02879
36.688,4.00488
36.69,3.98113
36.692,3.95753
36.694,3.9341
36.696,3.91082
36.698,3.88769
36.7,3.86473
36.702,3.84191
36.704,3.81925
36.706,3.79675
36.708,3.77439
36.71,3.75219
36.712,3.73014
36.714,3.70824
36.716,3.68649
36.718,3.66489
36.72,3.64344
36.722,3.62213
36.724,3.60097
36.726,3.57996
36.728,3.55909
36.73,3.53837
36.732,3.51779
36.734,3.49735
36.736,3.47705
36.738,3.4569
36.74,3.43688
36.742,3.417
36.744,3.39727
36.746,3.37767
36.748,3.35821
36.75,3.33888
36.752,3.31969
36.754,3.30063
36.756,3.28171
36.758,3.26292
36.76,3.24426
36.762,3.22573
36.764,3.20733
36.766,3.18906
36.768,3.17092
36.77,3.15291
36.772,3.13503
36.774,3.11727
36.776,3.09963
36.778,3.08212
36.78,3.06474
36.782,3.04747
36.784,3.03033
36.786,3.01331
36.788,2.99641
36.79,2.97963
36.792,2.96296
36.794,2.94642
36.796,2.92999
36.798,2.91368
36.8,2.89748
36.802,2.8814
36.804,2.86543
36.806,2.84957
36.808,2.83382
36.81,2.81819
36.812,2.80267
36.814,2.78725
36.816,2.77195
36.818,2.75675
36.82,2.74166
36.822,2.72667
36.824,2.7118
36.826,2.69702
36.828,2.68235
36.83,2.66778
36.832,2.65332
36.834,2.63896
36.836,2.6247
36.838,2.61053
36.84,2.59647
36.842,2.58251
36.844,2.56864
36.846,2.55488
36.848,2.5412
36.85,2.52763
36.852,2.51415
36.854,2.50076
36.856,2.48747
36.858,2.47427
36.86,2.46116
36.862,2.44814
36.864,2.43521
36.866,2.42238
36.868,2.40963
36.87,2.39697
36.872,2.3844
36.874,2.37192
36.876,2.35952
36.878,2.34721
36.88,2.33499
36.882,2.32285
36.884,2.31079
36.886,2.29882
36.888,2.28693
36.89,2.27512
36.892,2.26339
36.894,2.25174
36.896,2.24018
36.898,2.22869
36.9,2.21728
36.902,2.20595
36.904,2.1947
36.906,2.18352
36.908,2.17242
36.91,2.1614
36.912,2.15045
36.914,2.13958
36.916,2.12878
36.918,2.11806
36.92,2.1074
36.922,2.09682
36.924,2.08631
36.926,2.07588
36.928,2.06551
36.93,2.05521
36.932,2.04499
36.934,2.03483
36.936,2.02474
36.938,2.01472
36.94,2.00476
36.942,1.99487
36.944,1.98505
36.946,1.9753
36.948,1.96561
36.95,1.95598
36.952,1.94642
36.954,1.93692
36.956,1.92749
36.958,1.91812
36.96,1.90881
36.962,1.89956
36.964,1.89037
36.966,1.88125
36.968,1.87218
36.97,1.86318
36.972,1.85423
36.974,1.84535
36.976,1.83652
36.978,1.82775
36.98,1.81904
36.982,1.81038
36.984,1.80178
36.986,1.79324
36.988,1.78475
36.99,1.77632
36.992,1.76794
36.994,1.75962
36.996,1.75135
36.998,1.74314
37,1.73498
37.002,1.72687
37.004,1.71881
37.006,1.71081
37.008,1.70286
37.01,1.69496
37.012,1.68711
37.014,1.6793
37.016,1.67155
37.018,1.66385
37.02,1.6562
37.022,1.6486
37.024,1.64105
37.026,1.63354
37.028,1.62608
37.03,1.61867
37.032,1.61131
37.034,1.60399
37.036,1.59672
37.038,1.5895
37.04,1.58232
37.042,1.57518
37.044,1.56809
37.046,1.56105
37.048,1.55405
37.05,1.54709
37.052,1.54018
37.054,1.53331
37.056,1.52648
37.058,1.51969
37.06,1.51295
37.062,1.50625
37.064,1.49959
37.066,1.49297
37.068,1.4864
37.07,1.47986
37.072,1.47337
37.074,1.46691
37.076,1.46049
37.078,1.45412
37.08,1.44778
37.082,1.44148
37.084,1.43522
37.086,1.429
37.088,1.42281
37.09,1.41666
37.092,1.41056
37.094,1.40448
37.096,1.39845
37.098,1.39245
37.1,1.38649
37.102,1.38056
37.104,1.37467
37.106,1.36881
37.108,1.36299
37.11,1.35721
37.112,1.35146
37.114,1.34574
37.116,1.34006
37.118,1.33441
37.12,1.32879
37.122,1.32321
37.124,1.31766
37.126,1.31215
37.128,1.30667
37.13,1.30122
37.132,1.2958
37.134,1.29041
37.136,1.28506
37.138,1.27974
37.14,1.27444
37.142,1.26918
37.144,1.26395
37.146,1.25875
37.148,1.25359
37.15,1.24845
37.152,1.24334
37.154,1.23826
37.156,1.23321
37.158,1.22819
37.16,1.2232
37.162,1.21823
37.164,1.2133
37.166,1.20839
37.168,1.20352
37.17,1.19867
37.172,1.19385
37.174,1.18905
37.176,1.18429
37.178,1.17955
37.18,1.17483
37.182,1.17015
37.184,1.16549
37.186,1.16086
37.188,1.15625
37.19,1.15167
37.192,1.14712
37.194,1.14259
37.196,1.13809
37.198,1.13361
37.2,1.12916
37.202,1.12473
37.204,1.12033
37.206,1.11595
37.208,1.11159
37.21,1.10726
37.212,1.10296
37.214,1.09868
37.216,1.09442
37.218,1.09019
37.22,1.08598
37.222,1.08179
37.224,1.07762
37.226,1.07348
37.228,1.06936
37.23,1.06527
37.232,1.06119
37.234,1.05714
37.236,1.05311
37.238,1.04911
37.24,1.04512
37.242,1.04116
37.244,1.03722
37.246,1.0333
37.248,1.0294
37.25,1.02552
37.252,1.02166
37.254,1.01783
37.256,1.01401
37.258,1.01022
37.26,1.00644
37.262,1.00269
37.264,0.998954
37.266,0.99524
37.268,0.991546
37.27,0.987871
37.272,0.984216
37.274,0.98058
37.276,0.976964
37.278,0.973367
37.28,0.969789
37.282,0.96623
37.284,0.962689
37.286,0.959168
37.288,0.955665
37.29,0.95218
37.292,0.948714
37.294,0.945266
37.296,0.941835
37.298,0.938423
37.3,0.935029
37.302,0.931652
37.304,0.928293
37.306,0.924951
37.308,0.921627
37.31,0.91832
37.312,0.91503
37.314,0.911757
37.316,0.908501
37.318,0.905262
37.32,0.902039
37.322,0.898833
37.324,0.895644
37.326,0.892471
37.328,0.889314
37.33,0.886173
37.332,0.883048
37.334,0.879939
37.336,0.876846
37.338,0.873768
37.34,0.870707
37.342,0.86766
37.344,0.86463
37.346,0.861614
37.348,0.858614
37.35,0.855628
37.352,0.852658
37.354,0.849703
37.356,0.846763
37.358,0.843837
37.36,0.840926
37.362,0.838029
37.364,0.835147
37.366,0.832279
37.368,0.829426
37.37,0.826586
37.372,0.823761
37.374,0.82095
37.376,0.818153
37.378,0.815369
37.38,0.812599
37.382,0.809843
37.384,0.807101
37.386,0.804371
37.388,0.801656
37.39,0.798953
37.392,0.796264
37.394,0.793588
37.396,0.790925
37.398,0.788275
37.4,0.785637
37.402,0.783013
37.404,0.780401
37.406,0.777802
37.408,0.775216
37.41,0.772642
37.412,0.77008
37.414,0.767531
37.416,0.764994
37.418,0.762469
37.42,0.759956
37.422,0.757456
37.424,0.754967
37.426,0.75249
37.428,0.750025
37.43,0.747572
37.432,0.74513
37.434,0.7427
37.436,0.740282
37.438,0.737875
37.44,0.735479
37.442,0.733095
37.444,0.730722
37.446,0.72836
37.448,0.726009
37.45,0.723669
37.452,0.72134
37.454,0.719022
37.456,0.716715
37.458,0.714419
37.46,0.712134
37.462,0.709859
37.464,0.707594
37.466,0.705341
37.468,0.703097
37.47,0.700864
37.472,0.698642
37.474,0.696429
37.476,0.694227
37.478,0.692035
37.48,0.689853
37.482,0.687681
37.484,0.685519
37.486,0.683367
37.488,0.681225
37.49,0.679093
37.492,0.67697
37.494,0.674857
37.496,0.672754
37.498,0.67066
37.5,0.668576
37.502,0.666501
37.504,0.664436
37.506,0.66238
37.508,0.660333
37.51,0.658295
37.512,0.656267
37.514,0.654248
37.516,0.652237
37.518,0.650236
37.52,0.648244
37.522,0.646261
37.524,0.644286
37.526,0.642321
37.528,0.640364
37.53,0.638416
37.532,0.636476
37.534,0.634545
37.536,0.632623
37.538,0.630709
37.54,0.628804
37.542,0.626907
37.544,0.625018
37.546,0.623138
37.548,0.621266
37.55,0.619402
37.552,0.617546
37.554,0.615699
37.556,0.613859
37.558,0.612028
37.56,0.610205
37.562,0.608389
37.564,0.606582
37.566,0.604782
37.568,0.60299
37.57,0.601206
37.572,0.59943
37.574,0.597661
37.576,0.5959
37.578,0.594147
37.58,0.592401
37.582,0.590662
37.584,0.588931
37.586,0.587208
37.588,0.585492
37.59,0.583783
37.592,0.582082
37.594,0.580387
37.596,0.5787
37.598,0.57702
37.6,0.575348
37.602,0.573682
37.604,0.572024
37.606,0.570372
37.608,0.568728
37.61,0.56709
37.612,0.56546
37.614,0.563836
37.616,0.562219
37.618,0.560609
37.62,0.559005
37.622,0.557409
37.624,0.555819
37.626,0.554236
37.628,0.552659
37.63,0.551089
37.632,0.549525
37.634,0.547968
37.636,0.546417
37.638,0.544873
37.64,0.543335
37.642,0.541804
37.644,0.540279
37.646,0.53876
37.648,0.537248
37.65,0.535741
37.652,0.534241
37.654,0.532747
37.656,0.53126
37.658,0.529778
37.66,0.528302
37.662,0.526833
37.664,0.525369
37.666,0.523911
37.668,0.52246
37.67,0.521014
37.672,0.519574
37.674,0.51814
37.676,0.516712
37.678,0.515289
37.68,0.513873
37.682,0.512462
37.684,0.511056
37.686,0.509657
37.688,0.508263
37.69,0.506874
37.692,0.505491
37.694,0.504114
37.696,0.502742
37.698,0.501376
37.7,0.500015
37.702,0.49866
37.704,0.49731
37.706,0.495965
37.708,0.494626
37.71,0.493292
37.712,0.491963
37.714,0.490639
37.716,0.489321
37.718,0.488008
37.72,0.4867
37.722,0.485398
37.724,0.4841
37.726,0.482808
37.728,0.48152
37.73,0.480238
37.732,0.478961
37.734,0.477689
37.736,0.476421
37.738,0.475159
37.74,0.473901
37.742,0.472649
37.744,0.471401
37.746,0.470158
37.748,0.46892
37.75,0.467687
37.752,0.466459
37.754,0.465235
37.756,0.464016
37.758,0.462802
37.76,0.461592
37.762,0.460387
37.764,0.459187
37.766,0.457991
37.768,0.4568
37.77,0.455613
37.772,0.454431
37.774,0.453254
37.776,0.452081
37.778,0.450912
37.78,0.449748
37.782,0.448588
37.784,0.447433
37.786,0.446282
37.788,0.445136
37.79,0.443993
37.792,0.442856
37.794,0.441722
37.796,0.440593
37.798,0.439468
37.8,0.438347
37.802,0.43723
37.804,0.436118
37.806,0.435009
37.808,0.433905
37.81,0.432805
37.812,0.43171
37.814,0.430618
37.816,0.42953
37.818,0.428446
37.82,0.427367
37.822,0.426291
37.824,0.42522
37.826,0.424152
37.828,0.423088
37.83,0.422028
37.832,0.420973
37.834,0.419921
37.836,0.418873
37.838,0.417828
37.84,0.416788
37.842,0.415751
37.844,0.414719
37.846,0.41369
37.848,0.412664
37.85,0.411643
37.852,0.410625
37.854,0.409611
37.856,0.408601
37.858,0.407594
37.86,0.406591
37.862,0.405592
37.864,0.404596
37.866,0.403604
37.868,0.402615
37.87,0.40163
37.872,0.400649
37.874,0.399671
37.876,0.398697
37.878,0.397726
37.88,0.396759
37.882,0.395795
37.884,0.394834
37.886,0.393877
37.888,0.392924
37.89,0.391973
37.892,0.391027
37.894,0.390083
37.896,0.389143
37.898,0.388207
37.9,0.387273
37.902,0.386343
37.904,0.385416
37.906,0.384493
37.908,0.383573
37.91,0.382656
37.912,0.381742
37.914,0.380832
37.916,0.379924
37.918,0.37902
37.92,0.378119
37.922,0.377222
37.924,0.376327
37.926,0.375436
37.928,0.374547
37.93,0.373662
37.932,0.37278
37.934,0.371901
37.936,0.371025
37.938,0.370152
37.94,0.369282
37.942,0.368415
37.944,0.367551
37.946,0.36669
37.948,0.365832
37.95,0.364977
37.952,0.364125
37.954,0.363276
37.956,0.36243
37.958,0.361587
37.96,0.360747
37.962,0.359909
37.964,0.359074
37.966,0.358243
37.968,0.357414
37.97,0.356588
37.972,0.355765
37.974,0.354944
37.976,0.354127
37.978,0.353312
37.98,0.3525
37.982,0.351691
37.984,0.350884
37.986,0.35008
37.988,0.349279
37.99,0.348481
37.992,0.347685
37.994,0.346892
37.996,0.346102
37.998,0.345314
37.999,0.344921