File: pb/bose_2007/7nm/xrd/curve_total_fit.dat
35.0,15.5638
35.002,15.5655
35.004,15.5671
35.006,15.5687
35.008,15.5704
35.01,15.572
35.012,15.5737
35.014,15.5753
35.016,15.577
35.018,15.5787
35.02,15.5804
35.022,15.5821
35.024,15.5838
35.026,15.5855
35.028,15.5872
35.03,15.5889
35.032,15.5907
35.034,15.5924
35.036,15.5941
35.038,15.5959
35.04,15.5977
35.042,15.5994
35.044,15.6012
35.046,15.603
35.048,15.6048
35.05,15.6066
35.052,15.6084
35.054,15.6102
35.056,15.612
35.058,15.6139
35.06,15.6157
35.062,15.6175
35.064,15.6194
35.066,15.6213
35.068,15.6231
35.07,15.625
35.072,15.6269
35.074,15.6288
35.076,15.6307
35.078,15.6326
35.08,15.6345
35.082,15.6365
35.084,15.6384
35.086,15.6404
35.088,15.6423
35.09,15.6443
35.092,15.6463
35.094,15.6482
35.096,15.6502
35.098,15.6522
35.1,15.6542
35.102,15.6563
35.104,15.6583
35.106,15.6603
35.108,15.6624
35.11,15.6644
35.112,15.6665
35.114,15.6686
35.116,15.6707
35.118,15.6728
35.12,15.6749
35.122,15.677
35.124,15.6791
35.126,15.6812
35.128,15.6834
35.13,15.6855
35.132,15.6877
35.134,15.6899
35.136,15.692
35.138,15.6942
35.14,15.6964
35.142,15.6986
35.144,15.7009
35.146,15.7031
35.148,15.7053
35.15,15.7076
35.152,15.7099
35.154,15.7121
35.156,15.7144
35.158,15.7167
35.16,15.719
35.162,15.7213
35.164,15.7237
35.166,15.726
35.168,15.7284
35.17,15.7307
35.172,15.7331
35.174,15.7355
35.176,15.7379
35.178,15.7403
35.18,15.7427
35.182,15.7451
35.184,15.7476
35.186,15.75
35.188,15.7525
35.19,15.755
35.192,15.7575
35.194,15.76
35.196,15.7625
35.198,15.765
35.2,15.7675
35.202,15.7701
35.204,15.7726
35.206,15.7752
35.208,15.7778
35.21,15.7804
35.212,15.783
35.214,15.7856
35.216,15.7883
35.218,15.7909
35.22,15.7936
35.222,15.7963
35.224,15.799
35.226,15.8017
35.228,15.8044
35.23,15.8071
35.232,15.8098
35.234,15.8126
35.236,15.8154
35.238,15.8182
35.24,15.8209
35.242,15.8238
35.244,15.8266
35.246,15.8294
35.248,15.8323
35.25,15.8351
35.252,15.838
35.254,15.8409
35.256,15.8438
35.258,15.8468
35.26,15.8497
35.262,15.8527
35.264,15.8556
35.266,15.8586
35.268,15.8616
35.27,15.8646
35.272,15.8677
35.274,15.8707
35.276,15.8738
35.278,15.8768
35.28,15.8799
35.282,15.883
35.284,15.8862
35.286,15.8893
35.288,15.8925
35.29,15.8956
35.292,15.8988
35.294,15.902
35.296,15.9053
35.298,15.9085
35.3,15.9118
35.302,15.915
35.304,15.9183
35.306,15.9216
35.308,15.925
35.31,15.9283
35.312,15.9317
35.314,15.935
35.316,15.9384
35.318,15.9418
35.32,15.9453
35.322,15.9487
35.324,15.9522
35.326,15.9557
35.328,15.9592
35.33,15.9627
35.332,15.9662
35.334,15.9698
35.336,15.9734
35.338,15.977
35.34,15.9806
35.342,15.9842
35.344,15.9879
35.346,15.9915
35.348,15.9952
35.35,15.999
35.352,16.0027
35.354,16.0064
35.356,16.0102
35.358,16.014
35.36,16.0178
35.362,16.0217
35.364,16.0255
35.366,16.0294
35.368,16.0333
35.37,16.0372
35.372,16.0412
35.374,16.0451
35.376,16.0491
35.378,16.0531
35.38,16.0571
35.382,16.0612
35.384,16.0653
35.386,16.0694
35.388,16.0735
35.39,16.0776
35.392,16.0818
35.394,16.086
35.396,16.0902
35.398,16.0944
35.4,16.0987
35.402,16.103
35.404,16.1073
35.406,16.1116
35.408,16.1159
35.41,16.1203
35.412,16.1247
35.414,16.1292
35.416,16.1336
35.418,16.1381
35.42,16.1426
35.422,16.1471
35.424,16.1517
35.426,16.1563
35.428,16.1609
35.43,16.1655
35.432,16.1701
35.434,16.1748
35.436,16.1795
35.438,16.1843
35.44,16.1891
35.442,16.1938
35.444,16.1987
35.446,16.2035
35.448,16.2084
35.45,16.2133
35.452,16.2182
35.454,16.2232
35.456,16.2282
35.458,16.2332
35.46,16.2383
35.462,16.2433
35.464,16.2484
35.466,16.2536
35.468,16.2588
35.47,16.264
35.472,16.2692
35.474,16.2744
35.476,16.2797
35.478,16.2851
35.48,16.2904
35.482,16.2958
35.484,16.3012
35.486,16.3067
35.488,16.3121
35.49,16.3177
35.492,16.3232
35.494,16.3288
35.496,16.3344
35.498,16.3401
35.5,16.3457
35.502,16.3515
35.504,16.3572
35.506,16.363
35.508,16.3688
35.51,16.3747
35.512,16.3806
35.514,16.3865
35.516,16.3924
35.518,16.3984
35.52,16.4045
35.522,16.4106
35.524,16.4167
35.526,16.4228
35.528,16.429
35.53,16.4352
35.532,16.4415
35.534,16.4478
35.536,16.4541
35.538,16.4605
35.54,16.4669
35.542,16.4734
35.544,16.4799
35.546,16.4864
35.548,16.493
35.55,16.4996
35.552,16.5063
35.554,16.513
35.556,16.5197
35.558,16.5265
35.56,16.5333
35.562,16.5402
35.564,16.5471
35.566,16.554
35.568,16.561
35.57,16.5681
35.572,16.5752
35.574,16.5823
35.576,16.5895
35.578,16.5967
35.58,16.604
35.582,16.6113
35.584,16.6187
35.586,16.6261
35.588,16.6335
35.59,16.641
35.592,16.6486
35.594,16.6562
35.596,16.6639
35.598,16.6716
35.6,16.6793
35.602,16.6871
35.604,16.695
35.606,16.7029
35.608,16.7108
35.61,16.7188
35.612,16.7269
35.614,16.735
35.616,16.7431
35.618,16.7514
35.62,16.7596
35.622,16.7679
35.624,16.7763
35.626,16.7848
35.628,16.7932
35.63,16.8018
35.632,16.8104
35.634,16.819
35.636,16.8277
35.638,16.8365
35.64,16.8453
35.642,16.8542
35.644,16.8632
35.646,16.8722
35.648,16.8812
35.65,16.8904
35.652,16.8996
35.654,16.9088
35.656,16.9181
35.658,16.9275
35.66,16.9369
35.662,16.9464
35.664,16.956
35.666,16.9656
35.668,16.9753
35.67,16.9851
35.672,16.9949
35.674,17.0048
35.676,17.0147
35.678,17.0247
35.68,17.0348
35.682,17.045
35.684,17.0552
35.686,17.0655
35.688,17.0759
35.69,17.0863
35.692,17.0968
35.694,17.1074
35.696,17.1181
35.698,17.1288
35.7,17.1396
35.702,17.1505
35.704,17.1614
35.706,17.1724
35.708,17.1835
35.71,17.1947
35.712,17.206
35.714,17.2173
35.716,17.2287
35.718,17.2402
35.72,17.2517
35.722,17.2634
35.724,17.2751
35.726,17.2869
35.728,17.2988
35.73,17.3108
35.732,17.3228
35.734,17.335
35.736,17.3472
35.738,17.3595
35.74,17.3719
35.742,17.3844
35.744,17.397
35.746,17.4096
35.748,17.4224
35.75,17.4352
35.752,17.4481
35.754,17.4612
35.756,17.4743
35.758,17.4875
35.76,17.5008
35.762,17.5141
35.764,17.5276
35.766,17.5412
35.768,17.5549
35.77,17.5686
35.772,17.5825
35.774,17.5965
35.776,17.6105
35.778,17.6247
35.78,17.639
35.782,17.6533
35.784,17.6678
35.786,17.6824
35.788,17.697
35.79,17.7118
35.792,17.7267
35.794,17.7417
35.796,17.7567
35.798,17.7719
35.8,17.7873
35.802,17.8027
35.804,17.8182
35.806,17.8338
35.808,17.8496
35.81,17.8654
35.812,17.8814
35.814,17.8975
35.816,17.9137
35.818,17.93
35.82,17.9464
35.822,17.963
35.824,17.9796
35.826,17.9964
35.828,18.0133
35.83,18.0303
35.832,18.0475
35.834,18.0647
35.836,18.0821
35.838,18.0996
35.84,18.1173
35.842,18.135
35.844,18.1529
35.846,18.1709
35.848,18.1891
35.85,18.2073
35.852,18.2257
35.854,18.2443
35.856,18.2629
35.858,18.2817
35.86,18.3006
35.862,18.3197
35.864,18.3389
35.866,18.3582
35.868,18.3777
35.87,18.3973
35.872,18.417
35.874,18.4369
35.876,18.4569
35.878,18.4771
35.88,18.4973
35.882,18.5178
35.884,18.5384
35.886,18.5591
35.888,18.58
35.89,18.601
35.892,18.6221
35.894,18.6434
35.896,18.6649
35.898,18.6865
35.9,18.7082
35.902,18.7301
35.904,18.7522
35.906,18.7744
35.908,18.7967
35.91,18.8193
35.912,18.8419
35.914,18.8647
35.916,18.8877
35.918,18.9108
35.92,18.9341
35.922,18.9575
35.924,18.9811
35.926,19.0049
35.928,19.0288
35.93,19.0529
35.932,19.0771
35.934,19.1015
35.936,19.126
35.938,19.1507
35.94,19.1756
35.942,19.2006
35.944,19.2258
35.946,19.2512
35.948,19.2767
35.95,19.3024
35.952,19.3283
35.954,19.3543
35.956,19.3805
35.958,19.4068
35.96,19.4333
35.962,19.46
35.964,19.4868
35.966,19.5139
35.968,19.541
35.97,19.5684
35.972,19.5959
35.974,19.6236
35.976,19.6514
35.978,19.6794
35.98,19.7076
35.982,19.7359
35.984,19.7644
35.986,19.7931
35.988,19.822
35.99,19.851
35.992,19.8801
35.994,19.9095
35.996,19.939
35.998,19.9686
36,19.9985
36.002,20.0285
36.004,20.0586
36.006,20.0889
36.008,20.1194
36.01,20.1501
36.012,20.1809
36.014,20.2118
36.016,20.2429
36.018,20.2742
36.02,20.3056
36.022,20.3372
36.024,20.3689
36.026,20.4008
36.028,20.4329
36.03,20.4651
36.032,20.4974
36.034,20.5299
36.036,20.5625
36.038,20.5953
36.04,20.6282
36.042,20.6612
36.044,20.6944
36.046,20.7278
36.048,20.7612
36.05,20.7948
36.052,20.8285
36.054,20.8624
36.056,20.8963
36.058,20.9304
36.06,20.9646
36.062,20.999
36.064,21.0334
36.066,21.0679
36.068,21.1026
36.07,21.1374
36.072,21.1722
36.074,21.2072
36.076,21.2422
36.078,21.2774
36.08,21.3126
36.082,21.3479
36.084,21.3833
36.086,21.4188
36.088,21.4543
36.09,21.49
36.092,21.5256
36.094,21.5614
36.096,21.5971
36.098,21.633
36.1,21.6689
36.102,21.7048
36.104,21.7407
36.106,21.7767
36.108,21.8127
36.11,21.8488
36.112,21.8848
36.114,21.9208
36.116,21.9569
36.118,21.9929
36.12,22.029
36.122,22.065
36.124,22.101
36.126,22.137
36.128,22.1729
36.13,22.2088
36.132,22.2446
36.134,22.2804
36.136,22.3161
36.138,22.3518
36.14,22.3874
36.142,22.4229
36.144,22.4583
36.146,22.4936
36.148,22.5288
36.15,22.5639
36.152,22.5989
36.154,22.6337
36.156,22.6684
36.158,22.7029
36.16,22.7373
36.162,22.7716
36.164,22.8056
36.166,22.8395
36.168,22.8732
36.17,22.9067
36.172,22.94
36.174,22.9731
36.176,23.006
36.178,23.0386
36.18,23.071
36.182,23.1031
36.184,23.135
36.186,23.1666
36.188,23.1979
36.19,23.2289
36.192,23.2597
36.194,23.2901
36.196,23.3203
36.198,23.3501
36.2,23.3795
36.202,23.4087
36.204,23.4374
36.206,23.4658
36.208,23.4939
36.21,23.5215
36.212,23.5488
36.214,23.5757
36.216,23.6022
36.218,23.6282
36.22,23.6538
36.222,23.679
36.224,23.7038
36.226,23.7281
36.228,23.7519
36.23,23.7752
36.232,23.7981
36.234,23.8205
36.236,23.8424
36.238,23.8638
36.24,23.8847
36.242,23.9051
36.244,23.9249
36.246,23.9442
36.248,23.963
36.25,23.9812
36.252,23.9988
36.254,24.0159
36.256,24.0324
36.258,24.0483
36.26,24.0637
36.262,24.0785
36.264,24.0926
36.266,24.1062
36.268,24.1191
36.27,24.1315
36.272,24.1432
36.274,24.1543
36.276,24.1648
36.278,24.1746
36.28,24.1838
36.282,24.1924
36.284,24.2003
36.286,24.2075
36.288,24.2142
36.29,24.2201
36.292,24.2254
36.294,24.2301
36.296,24.2341
36.298,24.2374
36.3,24.2401
36.302,24.2421
36.304,24.2434
36.306,24.2441
36.308,24.2441
36.31,24.2434
36.312,24.2421
36.314,24.2401
36.316,24.2374
36.318,24.2341
36.32,24.2301
36.322,24.2254
36.324,24.2201
36.326,24.2142
36.328,24.2075
36.33,24.2003
36.332,24.1924
36.334,24.1838
36.336,24.1746
36.338,24.1648
36.34,24.1543
36.342,24.1432
36.344,24.1315
36.346,24.1191
36.348,24.1062
36.35,24.0926
36.352,24.0785
36.354,24.0637
36.356,24.0483
36.358,24.0324
36.36,24.0159
36.362,23.9988
36.364,23.9812
36.366,23.963
36.368,23.9442
36.37,23.9249
36.372,23.9051
36.374,23.8847
36.376,23.8638
36.378,23.8424
36.38,23.8205
36.382,23.7981
36.384,23.7752
36.386,23.7519
36.388,23.7281
36.39,23.7038
36.392,23.679
36.394,23.6538
36.396,23.6282
36.398,23.6022
36.4,23.5757
36.402,23.5488
36.404,23.5215
36.406,23.4939
36.408,23.4658
36.41,23.4374
36.412,23.4087
36.414,23.3795
36.416,23.3501
36.418,23.3203
36.42,23.2901
36.422,23.2597
36.424,23.2289
36.426,23.1979
36.428,23.1666
36.43,23.135
36.432,23.1031
36.434,23.071
36.436,23.0386
36.438,23.006
36.44,22.9731
36.442,22.94
36.444,22.9067
36.446,22.8732
36.448,22.8395
36.45,22.8056
36.452,22.7716
36.454,22.7373
36.456,22.7029
36.458,22.6684
36.46,22.6337
36.462,22.5989
36.464,22.5639
36.466,22.5288
36.468,22.4936
36.47,22.4583
36.472,22.4229
36.474,22.3874
36.476,22.3518
36.478,22.3161
36.48,22.2804
36.482,22.2446
36.484,22.2088
36.486,22.1729
36.488,22.137
36.49,22.101
36.492,22.065
36.494,22.029
36.496,21.9929
36.498,21.9569
36.5,21.9208
36.502,21.8848
36.504,21.8488
36.506,21.8127
36.508,21.7767
36.51,21.7407
36.512,21.7048
36.514,21.6689
36.516,21.633
36.518,21.5971
36.52,21.5614
36.522,21.5256
36.524,21.49
36.526,21.4543
36.528,21.4188
36.53,21.3833
36.532,21.3479
36.534,21.3126
36.536,21.2774
36.538,21.2422
36.54,21.2072
36.542,21.1722
36.544,21.1374
36.546,21.1026
36.548,21.0679
36.55,21.0334
36.552,20.999
36.554,20.9646
36.556,20.9304
36.558,20.8963
36.56,20.8624
36.562,20.8285
36.564,20.7948
36.566,20.7612
36.568,20.7278
36.57,20.6944
36.572,20.6612
36.574,20.6282
36.576,20.5953
36.578,20.5625
36.58,20.5299
36.582,20.4974
36.584,20.4651
36.586,20.4329
36.588,20.4008
36.59,20.3689
36.592,20.3372
36.594,20.3056
36.596,20.2742
36.598,20.2429
36.6,20.2118
36.602,20.1809
36.604,20.1501
36.606,20.1194
36.608,20.0889
36.61,20.0586
36.612,20.0285
36.614,19.9985
36.616,19.9686
36.618,19.939
36.62,19.9095
36.622,19.8801
36.624,19.851
36.626,19.822
36.628,19.7931
36.63,19.7644
36.632,19.7359
36.634,19.7076
36.636,19.6794
36.638,19.6514
36.64,19.6236
36.642,19.5959
36.644,19.5684
36.646,19.541
36.648,19.5139
36.65,19.4868
36.652,19.46
36.654,19.4333
36.656,19.4068
36.658,19.3805
36.66,19.3543
36.662,19.3283
36.664,19.3024
36.666,19.2767
36.668,19.2512
36.67,19.2258
36.672,19.2006
36.674,19.1756
36.676,19.1507
36.678,19.126
36.68,19.1015
36.682,19.0771
36.684,19.0529
36.686,19.0288
36.688,19.0049
36.69,18.9811
36.692,18.9575
36.694,18.9341
36.696,18.9108
36.698,18.8877
36.7,18.8647
36.702,18.8419
36.704,18.8193
36.706,18.7967
36.708,18.7744
36.71,18.7522
36.712,18.7301
36.714,18.7082
36.716,18.6865
36.718,18.6649
36.72,18.6434
36.722,18.6221
36.724,18.601
36.726,18.58
36.728,18.5591
36.73,18.5384
36.732,18.5178
36.734,18.4973
36.736,18.4771
36.738,18.4569
36.74,18.4369
36.742,18.417
36.744,18.3973
36.746,18.3777
36.748,18.3582
36.75,18.3389
36.752,18.3197
36.754,18.3006
36.756,18.2817
36.758,18.2629
36.76,18.2443
36.762,18.2257
36.764,18.2073
36.766,18.1891
36.768,18.1709
36.77,18.1529
36.772,18.135
36.774,18.1173
36.776,18.0996
36.778,18.0821
36.78,18.0647
36.782,18.0475
36.784,18.0303
36.786,18.0133
36.788,17.9964
36.79,17.9796
36.792,17.963
36.794,17.9464
36.796,17.93
36.798,17.9137
36.8,17.8975
36.802,17.8814
36.804,17.8654
36.806,17.8496
36.808,17.8338
36.81,17.8182
36.812,17.8027
36.814,17.7873
36.816,17.7719
36.818,17.7567
36.82,17.7417
36.822,17.7267
36.824,17.7118
36.826,17.697
36.828,17.6824
36.83,17.6678
36.832,17.6533
36.834,17.639
36.836,17.6247
36.838,17.6105
36.84,17.5965
36.842,17.5825
36.844,17.5686
36.846,17.5549
36.848,17.5412
36.85,17.5276
36.852,17.5141
36.854,17.5008
36.856,17.4875
36.858,17.4743
36.86,17.4612
36.862,17.4481
36.864,17.4352
36.866,17.4224
36.868,17.4096
36.87,17.397
36.872,17.3844
36.874,17.3719
36.876,17.3595
36.878,17.3472
36.88,17.335
36.882,17.3228
36.884,17.3108
36.886,17.2988
36.888,17.2869
36.89,17.2751
36.892,17.2634
36.894,17.2517
36.896,17.2402
36.898,17.2287
36.9,17.2173
36.902,17.206
36.904,17.1947
36.906,17.1835
36.908,17.1724
36.91,17.1614
36.912,17.1505
36.914,17.1396
36.916,17.1288
36.918,17.1181
36.92,17.1074
36.922,17.0968
36.924,17.0863
36.926,17.0759
36.928,17.0655
36.93,17.0552
36.932,17.045
36.934,17.0348
36.936,17.0247
36.938,17.0147
36.94,17.0048
36.942,16.9949
36.944,16.9851
36.946,16.9753
36.948,16.9656
36.95,16.956
36.952,16.9464
36.954,16.9369
36.956,16.9275
36.958,16.9181
36.96,16.9088
36.962,16.8996
36.964,16.8904
36.966,16.8812
36.968,16.8722
36.97,16.8632
36.972,16.8542
36.974,16.8453
36.976,16.8365
36.978,16.8277
36.98,16.819
36.982,16.8104
36.984,16.8018
36.986,16.7932
36.988,16.7848
36.99,16.7763
36.992,16.7679
36.994,16.7596
36.996,16.7514
36.998,16.7431
37,16.735
37.002,16.7269
37.004,16.7188
37.006,16.7108
37.008,16.7029
37.01,16.695
37.012,16.6871
37.014,16.6793
37.016,16.6716
37.018,16.6639
37.02,16.6562
37.022,16.6486
37.024,16.641
37.026,16.6335
37.028,16.6261
37.03,16.6187
37.032,16.6113
37.034,16.604
37.036,16.5967
37.038,16.5895
37.04,16.5823
37.042,16.5752
37.044,16.5681
37.046,16.561
37.048,16.554
37.05,16.5471
37.052,16.5402
37.054,16.5333
37.056,16.5265
37.058,16.5197
37.06,16.513
37.062,16.5063
37.064,16.4996
37.066,16.493
37.068,16.4864
37.07,16.4799
37.072,16.4734
37.074,16.4669
37.076,16.4605
37.078,16.4541
37.08,16.4478
37.082,16.4415
37.084,16.4352
37.086,16.429
37.088,16.4228
37.09,16.4167
37.092,16.4106
37.094,16.4045
37.096,16.3984
37.098,16.3924
37.1,16.3865
37.102,16.3806
37.104,16.3747
37.106,16.3688
37.108,16.363
37.11,16.3572
37.112,16.3515
37.114,16.3457
37.116,16.3401
37.118,16.3344
37.12,16.3288
37.122,16.3232
37.124,16.3177
37.126,16.3121
37.128,16.3067
37.13,16.3012
37.132,16.2958
37.134,16.2904
37.136,16.2851
37.138,16.2797
37.14,16.2744
37.142,16.2692
37.144,16.264
37.146,16.2588
37.148,16.2536
37.15,16.2484
37.152,16.2433
37.154,16.2383
37.156,16.2332
37.158,16.2282
37.16,16.2232
37.162,16.2182
37.164,16.2133
37.166,16.2084
37.168,16.2035
37.17,16.1987
37.172,16.1938
37.174,16.1891
37.176,16.1843
37.178,16.1795
37.18,16.1748
37.182,16.1701
37.184,16.1655
37.186,16.1609
37.188,16.1563
37.19,16.1517
37.192,16.1471
37.194,16.1426
37.196,16.1381
37.198,16.1336
37.2,16.1292
37.202,16.1247
37.204,16.1203
37.206,16.1159
37.208,16.1116
37.21,16.1073
37.212,16.103
37.214,16.0987
37.216,16.0944
37.218,16.0902
37.22,16.086
37.222,16.0818
37.224,16.0776
37.226,16.0735
37.228,16.0694
37.23,16.0653
37.232,16.0612
37.234,16.0571
37.236,16.0531
37.238,16.0491
37.24,16.0451
37.242,16.0412
37.244,16.0372
37.246,16.0333
37.248,16.0294
37.25,16.0255
37.252,16.0217
37.254,16.0178
37.256,16.014
37.258,16.0102
37.26,16.0064
37.262,16.0027
37.264,15.999
37.266,15.9952
37.268,15.9915
37.27,15.9879
37.272,15.9842
37.274,15.9806
37.276,15.977
37.278,15.9734
37.28,15.9698
37.282,15.9662
37.284,15.9627
37.286,15.9592
37.288,15.9557
37.29,15.9522
37.292,15.9487
37.294,15.9453
37.296,15.9418
37.298,15.9384
37.3,15.935
37.302,15.9317
37.304,15.9283
37.306,15.925
37.308,15.9216
37.31,15.9183
37.312,15.915
37.314,15.9118
37.316,15.9085
37.318,15.9053
37.32,15.902
37.322,15.8988
37.324,15.8956
37.326,15.8925
37.328,15.8893
37.33,15.8862
37.332,15.883
37.334,15.8799
37.336,15.8768
37.338,15.8738
37.34,15.8707
37.342,15.8677
37.344,15.8646
37.346,15.8616
37.348,15.8586
37.35,15.8556
37.352,15.8527
37.354,15.8497
37.356,15.8468
37.358,15.8438
37.36,15.8409
37.362,15.838
37.364,15.8351
37.366,15.8323
37.368,15.8294
37.37,15.8266
37.372,15.8238
37.374,15.8209
37.376,15.8182
37.378,15.8154
37.38,15.8126
37.382,15.8098
37.384,15.8071
37.386,15.8044
37.388,15.8017
37.39,15.799
37.392,15.7963
37.394,15.7936
37.396,15.7909
37.398,15.7883
37.4,15.7856
37.402,15.783
37.404,15.7804
37.406,15.7778
37.408,15.7752
37.41,15.7726
37.412,15.7701
37.414,15.7675
37.416,15.765
37.418,15.7625
37.42,15.76
37.422,15.7575
37.424,15.755
37.426,15.7525
37.428,15.75
37.43,15.7476
37.432,15.7451
37.434,15.7427
37.436,15.7403
37.438,15.7379
37.44,15.7355
37.442,15.7331
37.444,15.7307
37.446,15.7284
37.448,15.726
37.45,15.7237
37.452,15.7213
37.454,15.719
37.456,15.7167
37.458,15.7144
37.46,15.7121
37.462,15.7099
37.464,15.7076
37.466,15.7053
37.468,15.7031
37.47,15.7009
37.472,15.6986
37.474,15.6964
37.476,15.6942
37.478,15.692
37.48,15.6899
37.482,15.6877
37.484,15.6855
37.486,15.6834
37.488,15.6812
37.49,15.6791
37.492,15.677
37.494,15.6749
37.496,15.6728
37.498,15.6707
37.5,15.6686
37.502,15.6665
37.504,15.6644
37.506,15.6624
37.508,15.6603
37.51,15.6583
37.512,15.6563
37.514,15.6542
37.516,15.6522
37.518,15.6502
37.52,15.6482
37.522,15.6463
37.524,15.6443
37.526,15.6423
37.528,15.6404
37.53,15.6384
37.532,15.6365
37.534,15.6345
37.536,15.6326
37.538,15.6307
37.54,15.6288
37.542,15.6269
37.544,15.625
37.546,15.6231
37.548,15.6213
37.55,15.6194
37.552,15.6175
37.554,15.6157
37.556,15.6139
37.558,15.612
37.56,15.6102
37.562,15.6084
37.564,15.6066
37.566,15.6048
37.568,15.603
37.57,15.6012
37.572,15.5994
37.574,15.5977
37.576,15.5959
37.578,15.5941
37.58,15.5924
37.582,15.5907
37.584,15.5889
37.586,15.5872
37.588,15.5855
37.59,15.5838
37.592,15.5821
37.594,15.5804
37.596,15.5787
37.598,15.577
37.6,15.5753
37.602,15.5737
37.604,15.572
37.606,15.5704
37.608,15.5687
37.61,15.5671
37.612,15.5655
37.614,15.5638
37.616,15.5622
37.618,15.5606
37.62,15.559
37.622,15.5574
37.624,15.5558
37.626,15.5542
37.628,15.5527
37.63,15.5511
37.632,15.5495
37.634,15.548
37.636,15.5464
37.638,15.5449
37.64,15.5433
37.642,15.5418
37.644,15.5403
37.646,15.5388
37.648,15.5372
37.65,15.5357
37.652,15.5342
37.654,15.5327
37.656,15.5313
37.658,15.5298
37.66,15.5283
37.662,15.5268
37.664,15.5254
37.666,15.5239
37.668,15.5225
37.67,15.521
37.672,15.5196
37.674,15.5181
37.676,15.5167
37.678,15.5153
37.68,15.5139
37.682,15.5125
37.684,15.5111
37.686,15.5097
37.688,15.5083
37.69,15.5069
37.692,15.5055
37.694,15.5041
37.696,15.5027
37.698,15.5014
37.7,15.5
37.702,15.4987
37.704,15.4973
37.706,15.496
37.708,15.4946
37.71,15.4933
37.712,15.492
37.714,15.4906
37.716,15.4893
37.718,15.488
37.72,15.4867
37.722,15.4854
37.724,15.4841
37.726,15.4828
37.728,15.4815
37.73,15.4802
37.732,15.479
37.734,15.4777
37.736,15.4764
37.738,15.4752
37.74,15.4739
37.742,15.4726
37.744,15.4714
37.746,15.4702
37.748,15.4689
37.75,15.4677
37.752,15.4665
37.754,15.4652
37.756,15.464
37.758,15.4628
37.76,15.4616
37.762,15.4604
37.764,15.4592
37.766,15.458
37.768,15.4568
37.77,15.4556
37.772,15.4544
37.774,15.4533
37.776,15.4521
37.778,15.4509
37.78,15.4497
37.782,15.4486
37.784,15.4474
37.786,15.4463
37.788,15.4451
37.79,15.444
37.792,15.4429
37.794,15.4417
37.796,15.4406
37.798,15.4395
37.8,15.4383
37.802,15.4372
37.804,15.4361
37.806,15.435
37.808,15.4339
37.81,15.4328
37.812,15.4317
37.814,15.4306
37.816,15.4295
37.818,15.4284
37.82,15.4274
37.822,15.4263
37.824,15.4252
37.826,15.4242
37.828,15.4231
37.83,15.422
37.832,15.421
37.834,15.4199
37.836,15.4189
37.838,15.4178
37.84,15.4168
37.842,15.4158
37.844,15.4147
37.846,15.4137
37.848,15.4127
37.85,15.4116
37.852,15.4106
37.854,15.4096
37.856,15.4086
37.858,15.4076
37.86,15.4066
37.862,15.4056
37.864,15.4046
37.866,15.4036
37.868,15.4026
37.87,15.4016
37.872,15.4006
37.874,15.3997
37.876,15.3987
37.878,15.3977
37.88,15.3968
37.882,15.3958
37.884,15.3948
37.886,15.3939
37.888,15.3929
37.89,15.392
37.892,15.391
37.894,15.3901
37.896,15.3891
37.898,15.3882
37.9,15.3873
37.902,15.3863
37.904,15.3854
37.906,15.3845
37.908,15.3836
37.91,15.3827
37.912,15.3817
37.914,15.3808
37.916,15.3799
37.918,15.379
37.92,15.3781
37.922,15.3772
37.924,15.3763
37.926,15.3754
37.928,15.3745
37.93,15.3737
37.932,15.3728
37.934,15.3719
37.936,15.371
37.938,15.3702
37.94,15.3693
37.942,15.3684
37.944,15.3676
37.946,15.3667
37.948,15.3658
37.95,15.365
37.952,15.3641
37.954,15.3633
37.956,15.3624
37.958,15.3616
37.96,15.3607
37.962,15.3599
37.964,15.3591
37.966,15.3582
37.968,15.3574
37.97,15.3566
37.972,15.3558
37.974,15.3549
37.976,15.3541
37.978,15.3533
37.98,15.3525
37.982,15.3517
37.984,15.3509
37.986,15.3501
37.988,15.3493
37.99,15.3485
37.992,15.3477
37.994,15.3469
37.996,15.3461
37.998,15.3453
37.999,15.3449