File: pb/bose_2007/11nm/xrd/curve_1_fit.dat
35.0,0.165767
35.002,0.166238
35.004,0.166711
35.006,0.167186
35.008,0.167663
35.01,0.168143
35.012,0.168624
35.014,0.169107
35.016,0.169593
35.018,0.17008
35.02,0.17057
35.022,0.171061
35.024,0.171555
35.026,0.172051
35.028,0.172549
35.03,0.173049
35.032,0.173552
35.034,0.174057
35.036,0.174563
35.038,0.175072
35.04,0.175584
35.042,0.176097
35.044,0.176613
35.046,0.177131
35.048,0.177651
35.05,0.178174
35.052,0.178699
35.054,0.179226
35.056,0.179755
35.058,0.180287
35.06,0.180821
35.062,0.181358
35.064,0.181897
35.066,0.182438
35.068,0.182982
35.07,0.183528
35.072,0.184077
35.074,0.184628
35.076,0.185182
35.078,0.185738
35.08,0.186296
35.082,0.186858
35.084,0.187421
35.086,0.187987
35.088,0.188556
35.09,0.189127
35.092,0.189701
35.094,0.190278
35.096,0.190857
35.098,0.191439
35.1,0.192023
35.102,0.19261
35.104,0.1932
35.106,0.193793
35.108,0.194388
35.11,0.194986
35.112,0.195586
35.114,0.19619
35.116,0.196796
35.118,0.197405
35.12,0.198017
35.122,0.198632
35.124,0.19925
35.126,0.19987
35.128,0.200494
35.13,0.20112
35.132,0.201749
35.134,0.202381
35.136,0.203016
35.138,0.203654
35.14,0.204296
35.142,0.20494
35.144,0.205587
35.146,0.206237
35.148,0.206891
35.15,0.207547
35.152,0.208207
35.154,0.208869
35.156,0.209535
35.158,0.210204
35.16,0.210876
35.162,0.211552
35.164,0.212231
35.166,0.212912
35.168,0.213598
35.17,0.214286
35.172,0.214978
35.174,0.215673
35.176,0.216372
35.178,0.217074
35.18,0.217779
35.182,0.218488
35.184,0.2192
35.186,0.219916
35.188,0.220635
35.19,0.221358
35.192,0.222084
35.194,0.222814
35.196,0.223548
35.198,0.224285
35.2,0.225025
35.202,0.22577
35.204,0.226518
35.206,0.22727
35.208,0.228025
35.21,0.228784
35.212,0.229548
35.214,0.230314
35.216,0.231085
35.218,0.23186
35.22,0.232638
35.222,0.23342
35.224,0.234207
35.226,0.234997
35.228,0.235791
35.23,0.23659
35.232,0.237392
35.234,0.238198
35.236,0.239009
35.238,0.239824
35.24,0.240642
35.242,0.241465
35.244,0.242292
35.246,0.243124
35.248,0.24396
35.25,0.2448
35.252,0.245644
35.254,0.246493
35.256,0.247346
35.258,0.248203
35.26,0.249065
35.262,0.249932
35.264,0.250803
35.266,0.251678
35.268,0.252558
35.27,0.253443
35.272,0.254332
35.274,0.255226
35.276,0.256125
35.278,0.257028
35.28,0.257936
35.282,0.258849
35.284,0.259767
35.286,0.26069
35.288,0.261618
35.29,0.26255
35.292,0.263488
35.294,0.26443
35.296,0.265378
35.298,0.26633
35.3,0.267288
35.302,0.268251
35.304,0.269219
35.306,0.270193
35.308,0.271171
35.31,0.272155
35.312,0.273144
35.314,0.274139
35.316,0.275139
35.318,0.276145
35.32,0.277156
35.322,0.278172
35.324,0.279194
35.326,0.280222
35.328,0.281256
35.33,0.282295
35.332,0.28334
35.334,0.28439
35.336,0.285447
35.338,0.286509
35.34,0.287578
35.342,0.288652
35.344,0.289732
35.346,0.290818
35.348,0.291911
35.35,0.293009
35.352,0.294114
35.354,0.295225
35.356,0.296342
35.358,0.297466
35.36,0.298596
35.362,0.299732
35.364,0.300875
35.366,0.302024
35.368,0.30318
35.37,0.304343
35.372,0.305512
35.374,0.306688
35.376,0.30787
35.378,0.30906
35.38,0.310256
35.382,0.311459
35.384,0.31267
35.386,0.313887
35.388,0.315111
35.39,0.316343
35.392,0.317582
35.394,0.318828
35.396,0.320081
35.398,0.321342
35.4,0.32261
35.402,0.323885
35.404,0.325169
35.406,0.326459
35.408,0.327758
35.41,0.329064
35.412,0.330378
35.414,0.3317
35.416,0.333029
35.418,0.334367
35.42,0.335713
35.422,0.337066
35.424,0.338428
35.426,0.339798
35.428,0.341177
35.43,0.342564
35.432,0.343959
35.434,0.345363
35.436,0.346775
35.438,0.348196
35.44,0.349626
35.442,0.351064
35.444,0.352511
35.446,0.353967
35.448,0.355433
35.45,0.356907
35.452,0.35839
35.454,0.359883
35.456,0.361385
35.458,0.362896
35.46,0.364417
35.462,0.365947
35.464,0.367487
35.466,0.369036
35.468,0.370596
35.47,0.372165
35.472,0.373744
35.474,0.375333
35.476,0.376932
35.478,0.378542
35.48,0.380161
35.482,0.381791
35.484,0.383432
35.486,0.385083
35.488,0.386744
35.49,0.388417
35.492,0.3901
35.494,0.391794
35.496,0.393499
35.498,0.395215
35.5,0.396942
35.502,0.398681
35.504,0.400431
35.506,0.402192
35.508,0.403965
35.51,0.40575
35.512,0.407546
35.514,0.409355
35.516,0.411175
35.518,0.413007
35.52,0.414852
35.522,0.416709
35.524,0.418578
35.526,0.42046
35.528,0.422354
35.53,0.424262
35.532,0.426182
35.534,0.428115
35.536,0.430061
35.538,0.432021
35.54,0.433993
35.542,0.435979
35.544,0.437979
35.546,0.439993
35.548,0.44202
35.55,0.444061
35.552,0.446117
35.554,0.448186
35.556,0.45027
35.558,0.452368
35.56,0.454481
35.562,0.456609
35.564,0.458751
35.566,0.460909
35.568,0.463082
35.57,0.465269
35.572,0.467473
35.574,0.469692
35.576,0.471927
35.578,0.474177
35.58,0.476444
35.582,0.478727
35.584,0.481026
35.586,0.483341
35.588,0.485673
35.59,0.488022
35.592,0.490388
35.594,0.492771
35.596,0.495172
35.598,0.49759
35.6,0.500025
35.602,0.502478
35.604,0.504949
35.606,0.507439
35.608,0.509946
35.61,0.512472
35.612,0.515017
35.614,0.517581
35.616,0.520163
35.618,0.522765
35.62,0.525387
35.622,0.528028
35.624,0.530688
35.626,0.533369
35.628,0.53607
35.63,0.538791
35.632,0.541533
35.634,0.544296
35.636,0.547079
35.638,0.549884
35.64,0.552711
35.642,0.555559
35.644,0.558429
35.646,0.561321
35.648,0.564235
35.65,0.567172
35.652,0.570132
35.654,0.573115
35.656,0.576121
35.658,0.57915
35.66,0.582203
35.662,0.585281
35.664,0.588382
35.666,0.591508
35.668,0.594659
35.67,0.597834
35.672,0.601035
35.674,0.604262
35.676,0.607514
35.678,0.610793
35.68,0.614098
35.682,0.617429
35.684,0.620787
35.686,0.624173
35.688,0.627586
35.69,0.631027
35.692,0.634496
35.694,0.637993
35.696,0.641519
35.698,0.645075
35.7,0.648659
35.702,0.652273
35.704,0.655917
35.706,0.659592
35.708,0.663297
35.71,0.667033
35.712,0.6708
35.714,0.674599
35.716,0.67843
35.718,0.682294
35.72,0.68619
35.722,0.690119
35.724,0.694082
35.726,0.698079
35.728,0.70211
35.73,0.706175
35.732,0.710276
35.734,0.714412
35.736,0.718583
35.738,0.722792
35.74,0.727036
35.742,0.731318
35.744,0.735637
35.746,0.739995
35.748,0.74439
35.75,0.748825
35.752,0.753298
35.754,0.757812
35.756,0.762366
35.758,0.76696
35.76,0.771596
35.762,0.776273
35.764,0.780992
35.766,0.785754
35.768,0.790559
35.77,0.795408
35.772,0.800301
35.774,0.805239
35.776,0.810221
35.778,0.81525
35.78,0.820325
35.782,0.825447
35.784,0.830617
35.786,0.835835
35.788,0.841101
35.79,0.846417
35.792,0.851782
35.794,0.857198
35.796,0.862665
35.798,0.868184
35.8,0.873755
35.802,0.87938
35.804,0.885058
35.806,0.89079
35.808,0.896578
35.81,0.902421
35.812,0.908321
35.814,0.914278
35.816,0.920293
35.818,0.926367
35.82,0.9325
35.822,0.938694
35.824,0.944948
35.826,0.951264
35.828,0.957643
35.83,0.964085
35.832,0.970592
35.834,0.977163
35.836,0.983801
35.838,0.990505
35.84,0.997277
35.842,1.00412
35.844,1.01103
35.846,1.01801
35.848,1.02506
35.85,1.03218
35.852,1.03938
35.854,1.04665
35.856,1.054
35.858,1.06142
35.86,1.06892
35.862,1.0765
35.864,1.08416
35.866,1.0919
35.868,1.09972
35.87,1.10763
35.872,1.11562
35.874,1.12369
35.876,1.13185
35.878,1.1401
35.88,1.14843
35.882,1.15686
35.884,1.16538
35.886,1.17399
35.888,1.18269
35.89,1.19149
35.892,1.20039
35.894,1.20938
35.896,1.21847
35.898,1.22767
35.9,1.23697
35.902,1.24637
35.904,1.25587
35.906,1.26549
35.908,1.27521
35.91,1.28504
35.912,1.29499
35.914,1.30504
35.916,1.31522
35.918,1.32551
35.92,1.33592
35.922,1.34644
35.924,1.3571
35.926,1.36787
35.928,1.37877
35.93,1.3898
35.932,1.40096
35.934,1.41225
35.936,1.42368
35.938,1.43524
35.94,1.44694
35.942,1.45878
35.944,1.47076
35.946,1.48288
35.948,1.49516
35.95,1.50758
35.952,1.52016
35.954,1.53288
35.956,1.54577
35.958,1.55881
35.96,1.57202
35.962,1.58539
35.964,1.59893
35.966,1.61263
35.968,1.62651
35.97,1.64057
35.972,1.6548
35.974,1.66921
35.976,1.68381
35.978,1.69859
35.98,1.71357
35.982,1.72874
35.984,1.7441
35.986,1.75966
35.988,1.77543
35.99,1.79141
35.992,1.80759
35.994,1.82399
35.996,1.8406
35.998,1.85744
36,1.8745
36.002,1.89179
36.004,1.90932
36.006,1.92708
36.008,1.94508
36.01,1.96333
36.012,1.98182
36.014,2.00057
36.016,2.01958
36.018,2.03885
36.02,2.05839
36.022,2.07821
36.024,2.0983
36.026,2.11867
36.028,2.13933
36.03,2.16028
36.032,2.18153
36.034,2.20309
36.036,2.22495
36.038,2.24713
36.04,2.26963
36.042,2.29245
36.044,2.31561
36.046,2.33911
36.048,2.36295
36.05,2.38715
36.052,2.4117
36.054,2.43662
36.056,2.46191
36.058,2.48758
36.06,2.51363
36.062,2.54008
36.064,2.56694
36.066,2.5942
36.068,2.62188
36.07,2.64998
36.072,2.67852
36.074,2.7075
36.076,2.73693
36.078,2.76682
36.08,2.79717
36.082,2.82801
36.084,2.85934
36.086,2.89116
36.088,2.92349
36.09,2.95633
36.092,2.98971
36.094,3.02362
36.096,3.05809
36.098,3.09311
36.1,3.12871
36.102,3.16489
36.104,3.20166
36.106,3.23905
36.108,3.27705
36.11,3.31569
36.112,3.35498
36.114,3.39493
36.116,3.43555
36.118,3.47686
36.12,3.51887
36.122,3.5616
36.124,3.60506
36.126,3.64927
36.128,3.69425
36.13,3.74
36.132,3.78656
36.134,3.83392
36.136,3.88212
36.138,3.93117
36.14,3.98109
36.142,4.03189
36.144,4.0836
36.146,4.13623
36.148,4.18981
36.15,4.24436
36.152,4.29989
36.154,4.35643
36.156,4.414
36.158,4.47263
36.16,4.53233
36.162,4.59313
36.164,4.65505
36.166,4.71812
36.168,4.78237
36.17,4.84782
36.172,4.91449
36.174,4.98241
36.176,5.05161
36.178,5.12213
36.18,5.19398
36.182,5.26719
36.184,5.3418
36.186,5.41784
36.188,5.49534
36.19,5.57432
36.192,5.65483
36.194,5.73689
36.196,5.82054
36.198,5.90582
36.2,5.99275
36.202,6.08138
36.204,6.17173
36.206,6.26385
36.208,6.35778
36.21,6.45355
36.212,6.55119
36.214,6.65076
36.216,6.75228
36.218,6.85581
36.22,6.96137
36.222,7.06901
36.224,7.17878
36.226,7.2907
36.228,7.40484
36.23,7.52122
36.232,7.63989
36.234,7.76089
36.236,7.88427
36.238,8.01006
36.24,8.13832
36.242,8.26908
36.244,8.40238
36.246,8.53827
36.248,8.67678
36.25,8.81796
36.252,8.96185
36.254,9.10849
36.256,9.25791
36.258,9.41015
36.26,9.56524
36.262,9.72322
36.264,9.88412
36.266,10.048
36.268,10.2148
36.27,10.3846
36.272,10.5574
36.274,10.7333
36.276,10.9122
36.278,11.0942
36.28,11.2792
36.282,11.4673
36.284,11.6584
36.286,11.8526
36.288,12.0498
36.29,12.2501
36.292,12.4533
36.294,12.6594
36.296,12.8684
36.298,13.0803
36.3,13.2949
36.302,13.5123
36.304,13.7322
36.306,13.9547
36.308,14.1795
36.31,14.4067
36.312,14.636
36.314,14.8674
36.316,15.1006
36.318,15.3355
36.32,15.5718
36.322,15.8095
36.324,16.0482
36.326,16.2878
36.328,16.528
36.33,16.7684
36.332,17.0089
36.334,17.2491
36.336,17.4887
36.338,17.7274
36.34,17.9648
36.342,18.2006
36.344,18.4343
36.346,18.6655
36.348,18.8939
36.35,19.1191
36.352,19.3405
36.354,19.5577
36.356,19.7704
36.358,19.9779
36.36,20.1799
36.362,20.3759
36.364,20.5653
36.366,20.7478
36.368,20.9229
36.37,21.0901
36.372,21.2489
36.374,21.3989
36.376,21.5397
36.378,21.6709
36.38,21.7921
36.382,21.9029
36.384,22.003
36.386,22.0921
36.388,22.17
36.39,22.2362
36.392,22.2907
36.394,22.3333
36.396,22.3638
36.398,22.3822
36.4,22.3883
36.402,22.3822
36.404,22.3638
36.406,22.3333
36.408,22.2907
36.41,22.2362
36.412,22.17
36.414,22.0921
36.416,22.003
36.418,21.9029
36.42,21.7921
36.422,21.6709
36.424,21.5397
36.426,21.3989
36.428,21.2489
36.43,21.0901
36.432,20.9229
36.434,20.7478
36.436,20.5653
36.438,20.3759
36.44,20.1799
36.442,19.9779
36.444,19.7704
36.446,19.5577
36.448,19.3405
36.45,19.1191
36.452,18.8939
36.454,18.6655
36.456,18.4343
36.458,18.2006
36.46,17.9648
36.462,17.7274
36.464,17.4887
36.466,17.2491
36.468,17.0089
36.47,16.7684
36.472,16.528
36.474,16.2878
36.476,16.0482
36.478,15.8095
36.48,15.5718
36.482,15.3355
36.484,15.1006
36.486,14.8674
36.488,14.636
36.49,14.4067
36.492,14.1795
36.494,13.9547
36.496,13.7322
36.498,13.5123
36.5,13.2949
36.502,13.0803
36.504,12.8684
36.506,12.6594
36.508,12.4533
36.51,12.2501
36.512,12.0498
36.514,11.8526
36.516,11.6584
36.518,11.4673
36.52,11.2792
36.522,11.0942
36.524,10.9122
36.526,10.7333
36.528,10.5574
36.53,10.3846
36.532,10.2148
36.534,10.048
36.536,9.88412
36.538,9.72322
36.54,9.56524
36.542,9.41015
36.544,9.25791
36.546,9.10849
36.548,8.96185
36.55,8.81796
36.552,8.67678
36.554,8.53827
36.556,8.40238
36.558,8.26908
36.56,8.13832
36.562,8.01006
36.564,7.88427
36.566,7.76089
36.568,7.63989
36.57,7.52122
36.572,7.40484
36.574,7.2907
36.576,7.17878
36.578,7.06901
36.58,6.96137
36.582,6.85581
36.584,6.75228
36.586,6.65076
36.588,6.55119
36.59,6.45355
36.592,6.35778
36.594,6.26385
36.596,6.17173
36.598,6.08138
36.6,5.99275
36.602,5.90582
36.604,5.82054
36.606,5.73689
36.608,5.65483
36.61,5.57432
36.612,5.49534
36.614,5.41784
36.616,5.3418
36.618,5.26719
36.62,5.19398
36.622,5.12213
36.624,5.05161
36.626,4.98241
36.628,4.91449
36.63,4.84782
36.632,4.78237
36.634,4.71812
36.636,4.65505
36.638,4.59313
36.64,4.53233
36.642,4.47263
36.644,4.414
36.646,4.35643
36.648,4.29989
36.65,4.24436
36.652,4.18981
36.654,4.13623
36.656,4.0836
36.658,4.03189
36.66,3.98109
36.662,3.93117
36.664,3.88212
36.666,3.83392
36.668,3.78656
36.67,3.74
36.672,3.69425
36.674,3.64927
36.676,3.60506
36.678,3.5616
36.68,3.51887
36.682,3.47686
36.684,3.43555
36.686,3.39493
36.688,3.35498
36.69,3.31569
36.692,3.27705
36.694,3.23905
36.696,3.20166
36.698,3.16489
36.7,3.12871
36.702,3.09311
36.704,3.05809
36.706,3.02362
36.708,2.98971
36.71,2.95633
36.712,2.92349
36.714,2.89116
36.716,2.85934
36.718,2.82801
36.72,2.79717
36.722,2.76682
36.724,2.73693
36.726,2.7075
36.728,2.67852
36.73,2.64998
36.732,2.62188
36.734,2.5942
36.736,2.56694
36.738,2.54008
36.74,2.51363
36.742,2.48758
36.744,2.46191
36.746,2.43662
36.748,2.4117
36.75,2.38715
36.752,2.36295
36.754,2.33911
36.756,2.31561
36.758,2.29245
36.76,2.26963
36.762,2.24713
36.764,2.22495
36.766,2.20309
36.768,2.18153
36.77,2.16028
36.772,2.13933
36.774,2.11867
36.776,2.0983
36.778,2.07821
36.78,2.05839
36.782,2.03885
36.784,2.01958
36.786,2.00057
36.788,1.98182
36.79,1.96333
36.792,1.94508
36.794,1.92708
36.796,1.90932
36.798,1.89179
36.8,1.8745
36.802,1.85744
36.804,1.8406
36.806,1.82399
36.808,1.80759
36.81,1.79141
36.812,1.77543
36.814,1.75966
36.816,1.7441
36.818,1.72874
36.82,1.71357
36.822,1.69859
36.824,1.68381
36.826,1.66921
36.828,1.6548
36.83,1.64057
36.832,1.62651
36.834,1.61263
36.836,1.59893
36.838,1.58539
36.84,1.57202
36.842,1.55881
36.844,1.54577
36.846,1.53288
36.848,1.52016
36.85,1.50758
36.852,1.49516
36.854,1.48288
36.856,1.47076
36.858,1.45878
36.86,1.44694
36.862,1.43524
36.864,1.42368
36.866,1.41225
36.868,1.40096
36.87,1.3898
36.872,1.37877
36.874,1.36787
36.876,1.3571
36.878,1.34644
36.88,1.33592
36.882,1.32551
36.884,1.31522
36.886,1.30504
36.888,1.29499
36.89,1.28504
36.892,1.27521
36.894,1.26549
36.896,1.25587
36.898,1.24637
36.9,1.23697
36.902,1.22767
36.904,1.21847
36.906,1.20938
36.908,1.20039
36.91,1.19149
36.912,1.18269
36.914,1.17399
36.916,1.16538
36.918,1.15686
36.92,1.14843
36.922,1.1401
36.924,1.13185
36.926,1.12369
36.928,1.11562
36.93,1.10763
36.932,1.09972
36.934,1.0919
36.936,1.08416
36.938,1.0765
36.94,1.06892
36.942,1.06142
36.944,1.054
36.946,1.04665
36.948,1.03938
36.95,1.03218
36.952,1.02506
36.954,1.01801
36.956,1.01103
36.958,1.00412
36.96,0.997277
36.962,0.990505
36.964,0.983801
36.966,0.977163
36.968,0.970592
36.97,0.964085
36.972,0.957643
36.974,0.951264
36.976,0.944948
36.978,0.938694
36.98,0.9325
36.982,0.926367
36.984,0.920293
36.986,0.914278
36.988,0.908321
36.99,0.902421
36.992,0.896578
36.994,0.89079
36.996,0.885058
36.998,0.87938
37,0.873755
37.002,0.868184
37.004,0.862665
37.006,0.857198
37.008,0.851782
37.01,0.846417
37.012,0.841101
37.014,0.835835
37.016,0.830617
37.018,0.825447
37.02,0.820325
37.022,0.81525
37.024,0.810221
37.026,0.805239
37.028,0.800301
37.03,0.795408
37.032,0.790559
37.034,0.785754
37.036,0.780992
37.038,0.776273
37.04,0.771596
37.042,0.76696
37.044,0.762366
37.046,0.757812
37.048,0.753298
37.05,0.748825
37.052,0.74439
37.054,0.739995
37.056,0.735637
37.058,0.731318
37.06,0.727036
37.062,0.722792
37.064,0.718583
37.066,0.714412
37.068,0.710276
37.07,0.706175
37.072,0.70211
37.074,0.698079
37.076,0.694082
37.078,0.690119
37.08,0.68619
37.082,0.682294
37.084,0.67843
37.086,0.674599
37.088,0.6708
37.09,0.667033
37.092,0.663297
37.094,0.659592
37.096,0.655917
37.098,0.652273
37.1,0.648659
37.102,0.645075
37.104,0.641519
37.106,0.637993
37.108,0.634496
37.11,0.631027
37.112,0.627586
37.114,0.624173
37.116,0.620787
37.118,0.617429
37.12,0.614098
37.122,0.610793
37.124,0.607514
37.126,0.604262
37.128,0.601035
37.13,0.597834
37.132,0.594659
37.134,0.591508
37.136,0.588382
37.138,0.585281
37.14,0.582203
37.142,0.57915
37.144,0.576121
37.146,0.573115
37.148,0.570132
37.15,0.567172
37.152,0.564235
37.154,0.561321
37.156,0.558429
37.158,0.555559
37.16,0.552711
37.162,0.549884
37.164,0.547079
37.166,0.544296
37.168,0.541533
37.17,0.538791
37.172,0.53607
37.174,0.533369
37.176,0.530688
37.178,0.528028
37.18,0.525387
37.182,0.522765
37.184,0.520163
37.186,0.517581
37.188,0.515017
37.19,0.512472
37.192,0.509946
37.194,0.507439
37.196,0.504949
37.198,0.502478
37.2,0.500025
37.202,0.49759
37.204,0.495172
37.206,0.492771
37.208,0.490388
37.21,0.488022
37.212,0.485673
37.214,0.483341
37.216,0.481026
37.218,0.478727
37.22,0.476444
37.222,0.474177
37.224,0.471927
37.226,0.469692
37.228,0.467473
37.23,0.465269
37.232,0.463082
37.234,0.460909
37.236,0.458751
37.238,0.456609
37.24,0.454481
37.242,0.452368
37.244,0.45027
37.246,0.448186
37.248,0.446117
37.25,0.444061
37.252,0.44202
37.254,0.439993
37.256,0.437979
37.258,0.435979
37.26,0.433993
37.262,0.432021
37.264,0.430061
37.266,0.428115
37.268,0.426182
37.27,0.424262
37.272,0.422354
37.274,0.42046
37.276,0.418578
37.278,0.416709
37.28,0.414852
37.282,0.413007
37.284,0.411175
37.286,0.409355
37.288,0.407546
37.29,0.40575
37.292,0.403965
37.294,0.402192
37.296,0.400431
37.298,0.398681
37.3,0.396942
37.302,0.395215
37.304,0.393499
37.306,0.391794
37.308,0.3901
37.31,0.388417
37.312,0.386744
37.314,0.385083
37.316,0.383432
37.318,0.381791
37.32,0.380161
37.322,0.378542
37.324,0.376932
37.326,0.375333
37.328,0.373744
37.33,0.372165
37.332,0.370596
37.334,0.369036
37.336,0.367487
37.338,0.365947
37.34,0.364417
37.342,0.362896
37.344,0.361385
37.346,0.359883
37.348,0.35839
37.35,0.356907
37.352,0.355433
37.354,0.353967
37.356,0.352511
37.358,0.351064
37.36,0.349626
37.362,0.348196
37.364,0.346775
37.366,0.345363
37.368,0.343959
37.37,0.342564
37.372,0.341177
37.374,0.339798
37.376,0.338428
37.378,0.337066
37.38,0.335713
37.382,0.334367
37.384,0.333029
37.386,0.3317
37.388,0.330378
37.39,0.329064
37.392,0.327758
37.394,0.326459
37.396,0.325169
37.398,0.323885
37.4,0.32261
37.402,0.321342
37.404,0.320081
37.406,0.318828
37.408,0.317582
37.41,0.316343
37.412,0.315111
37.414,0.313887
37.416,0.31267
37.418,0.311459
37.42,0.310256
37.422,0.30906
37.424,0.30787
37.426,0.306688
37.428,0.305512
37.43,0.304343
37.432,0.30318
37.434,0.302024
37.436,0.300875
37.438,0.299732
37.44,0.298596
37.442,0.297466
37.444,0.296342
37.446,0.295225
37.448,0.294114
37.45,0.293009
37.452,0.291911
37.454,0.290818
37.456,0.289732
37.458,0.288652
37.46,0.287578
37.462,0.286509
37.464,0.285447
37.466,0.28439
37.468,0.28334
37.47,0.282295
37.472,0.281256
37.474,0.280222
37.476,0.279194
37.478,0.278172
37.48,0.277156
37.482,0.276145
37.484,0.275139
37.486,0.274139
37.488,0.273144
37.49,0.272155
37.492,0.271171
37.494,0.270193
37.496,0.269219
37.498,0.268251
37.5,0.267288
37.502,0.26633
37.504,0.265378
37.506,0.26443
37.508,0.263488
37.51,0.26255
37.512,0.261618
37.514,0.26069
37.516,0.259767
37.518,0.258849
37.52,0.257936
37.522,0.257028
37.524,0.256125
37.526,0.255226
37.528,0.254332
37.53,0.253443
37.532,0.252558
37.534,0.251678
37.536,0.250803
37.538,0.249932
37.54,0.249065
37.542,0.248203
37.544,0.247346
37.546,0.246493
37.548,0.245644
37.55,0.2448
37.552,0.24396
37.554,0.243124
37.556,0.242292
37.558,0.241465
37.56,0.240642
37.562,0.239824
37.564,0.239009
37.566,0.238198
37.568,0.237392
37.57,0.23659
37.572,0.235791
37.574,0.234997
37.576,0.234207
37.578,0.23342
37.58,0.232638
37.582,0.23186
37.584,0.231085
37.586,0.230314
37.588,0.229548
37.59,0.228784
37.592,0.228025
37.594,0.22727
37.596,0.226518
37.598,0.22577
37.6,0.225025
37.602,0.224285
37.604,0.223548
37.606,0.222814
37.608,0.222084
37.61,0.221358
37.612,0.220635
37.614,0.219916
37.616,0.2192
37.618,0.218488
37.62,0.217779
37.622,0.217074
37.624,0.216372
37.626,0.215673
37.628,0.214978
37.63,0.214286
37.632,0.213598
37.634,0.212912
37.636,0.212231
37.638,0.211552
37.64,0.210876
37.642,0.210204
37.644,0.209535
37.646,0.208869
37.648,0.208207
37.65,0.207547
37.652,0.206891
37.654,0.206237
37.656,0.205587
37.658,0.20494
37.66,0.204296
37.662,0.203654
37.664,0.203016
37.666,0.202381
37.668,0.201749
37.67,0.20112
37.672,0.200494
37.674,0.19987
37.676,0.19925
37.678,0.198632
37.68,0.198017
37.682,0.197405
37.684,0.196796
37.686,0.19619
37.688,0.195586
37.69,0.194986
37.692,0.194388
37.694,0.193793
37.696,0.1932
37.698,0.19261
37.7,0.192023
37.702,0.191439
37.704,0.190857
37.706,0.190278
37.708,0.189701
37.71,0.189127
37.712,0.188556
37.714,0.187987
37.716,0.187421
37.718,0.186858
37.72,0.186296
37.722,0.185738
37.724,0.185182
37.726,0.184628
37.728,0.184077
37.73,0.183528
37.732,0.182982
37.734,0.182438
37.736,0.181897
37.738,0.181358
37.74,0.180821
37.742,0.180287
37.744,0.179755
37.746,0.179226
37.748,0.178699
37.75,0.178174
37.752,0.177651
37.754,0.177131
37.756,0.176613
37.758,0.176097
37.76,0.175584
37.762,0.175072
37.764,0.174563
37.766,0.174057
37.768,0.173552
37.77,0.173049
37.772,0.172549
37.774,0.172051
37.776,0.171555
37.778,0.171061
37.78,0.17057
37.782,0.17008
37.784,0.169593
37.786,0.169107
37.788,0.168624
37.79,0.168143
37.792,0.167663
37.794,0.167186
37.796,0.166711
37.798,0.166238
37.8,0.165767
37.802,0.165298
37.804,0.164831
37.806,0.164365
37.808,0.163902
37.81,0.163441
37.812,0.162982
37.814,0.162524
37.816,0.162069
37.818,0.161615
37.82,0.161164
37.822,0.160714
37.824,0.160266
37.826,0.15982
37.828,0.159376
37.83,0.158933
37.832,0.158493
37.834,0.158054
37.836,0.157617
37.838,0.157182
37.84,0.156749
37.842,0.156318
37.844,0.155888
37.846,0.15546
37.848,0.155034
37.85,0.154609
37.852,0.154187
37.854,0.153766
37.856,0.153346
37.858,0.152929
37.86,0.152513
37.862,0.152099
37.864,0.151686
37.866,0.151276
37.868,0.150866
37.87,0.150459
37.872,0.150053
37.874,0.149649
37.876,0.149246
37.878,0.148845
37.88,0.148446
37.882,0.148048
37.884,0.147652
37.886,0.147258
37.888,0.146865
37.89,0.146473
37.892,0.146083
37.894,0.145695
37.896,0.145308
37.898,0.144923
37.9,0.144539
37.902,0.144157
37.904,0.143776
37.906,0.143397
37.908,0.14302
37.91,0.142643
37.912,0.142269
37.914,0.141895
37.916,0.141524
37.918,0.141153
37.92,0.140784
37.922,0.140417
37.924,0.140051
37.926,0.139686
37.928,0.139323
37.93,0.138961
37.932,0.138601
37.934,0.138242
37.936,0.137885
37.938,0.137528
37.94,0.137174
37.942,0.13682
37.944,0.136468
37.946,0.136117
37.948,0.135768
37.95,0.13542
37.952,0.135073
37.954,0.134728
37.956,0.134384
37.958,0.134041
37.96,0.1337
37.962,0.13336
37.964,0.133021
37.966,0.132683
37.968,0.132347
37.97,0.132012
37.972,0.131678
37.974,0.131346
37.976,0.131015
37.978,0.130685
37.98,0.130356
37.982,0.130029
37.984,0.129702
37.986,0.129377
37.988,0.129053
37.99,0.128731
37.992,0.128409
37.994,0.128089
37.996,0.12777
37.998,0.127452
37.999,0.127294