File: pb/bose_2007/11nm/xrd/curve_total_fit.dat
35.0,138.166
35.002,138.166
35.004,138.167
35.006,138.167
35.008,138.168
35.01,138.168
35.012,138.169
35.014,138.169
35.016,138.17
35.018,138.17
35.02,138.171
35.022,138.171
35.024,138.172
35.026,138.172
35.028,138.173
35.03,138.173
35.032,138.174
35.034,138.174
35.036,138.175
35.038,138.175
35.04,138.176
35.042,138.176
35.044,138.177
35.046,138.177
35.048,138.178
35.05,138.178
35.052,138.179
35.054,138.179
35.056,138.18
35.058,138.18
35.06,138.181
35.062,138.181
35.064,138.182
35.066,138.182
35.068,138.183
35.07,138.184
35.072,138.184
35.074,138.185
35.076,138.185
35.078,138.186
35.08,138.186
35.082,138.187
35.084,138.187
35.086,138.188
35.088,138.189
35.09,138.189
35.092,138.19
35.094,138.19
35.096,138.191
35.098,138.191
35.1,138.192
35.102,138.193
35.104,138.193
35.106,138.194
35.108,138.194
35.11,138.195
35.112,138.196
35.114,138.196
35.116,138.197
35.118,138.197
35.12,138.198
35.122,138.199
35.124,138.199
35.126,138.2
35.128,138.2
35.13,138.201
35.132,138.202
35.134,138.202
35.136,138.203
35.138,138.204
35.14,138.204
35.142,138.205
35.144,138.206
35.146,138.206
35.148,138.207
35.15,138.208
35.152,138.208
35.154,138.209
35.156,138.21
35.158,138.21
35.16,138.211
35.162,138.212
35.164,138.212
35.166,138.213
35.168,138.214
35.17,138.214
35.172,138.215
35.174,138.216
35.176,138.216
35.178,138.217
35.18,138.218
35.182,138.218
35.184,138.219
35.186,138.22
35.188,138.221
35.19,138.221
35.192,138.222
35.194,138.223
35.196,138.224
35.198,138.224
35.2,138.225
35.202,138.226
35.204,138.227
35.206,138.227
35.208,138.228
35.21,138.229
35.212,138.23
35.214,138.23
35.216,138.231
35.218,138.232
35.22,138.233
35.222,138.233
35.224,138.234
35.226,138.235
35.228,138.236
35.23,138.237
35.232,138.237
35.234,138.238
35.236,138.239
35.238,138.24
35.24,138.241
35.242,138.241
35.244,138.242
35.246,138.243
35.248,138.244
35.25,138.245
35.252,138.246
35.254,138.246
35.256,138.247
35.258,138.248
35.26,138.249
35.262,138.25
35.264,138.251
35.266,138.252
35.268,138.253
35.27,138.253
35.272,138.254
35.274,138.255
35.276,138.256
35.278,138.257
35.28,138.258
35.282,138.259
35.284,138.26
35.286,138.261
35.288,138.262
35.29,138.263
35.292,138.263
35.294,138.264
35.296,138.265
35.298,138.266
35.3,138.267
35.302,138.268
35.304,138.269
35.306,138.27
35.308,138.271
35.31,138.272
35.312,138.273
35.314,138.274
35.316,138.275
35.318,138.276
35.32,138.277
35.322,138.278
35.324,138.279
35.326,138.28
35.328,138.281
35.33,138.282
35.332,138.283
35.334,138.284
35.336,138.285
35.338,138.287
35.34,138.288
35.342,138.289
35.344,138.29
35.346,138.291
35.348,138.292
35.35,138.293
35.352,138.294
35.354,138.295
35.356,138.296
35.358,138.297
35.36,138.299
35.362,138.3
35.364,138.301
35.366,138.302
35.368,138.303
35.37,138.304
35.372,138.306
35.374,138.307
35.376,138.308
35.378,138.309
35.38,138.31
35.382,138.311
35.384,138.313
35.386,138.314
35.388,138.315
35.39,138.316
35.392,138.318
35.394,138.319
35.396,138.32
35.398,138.321
35.4,138.323
35.402,138.324
35.404,138.325
35.406,138.326
35.408,138.328
35.41,138.329
35.412,138.33
35.414,138.332
35.416,138.333
35.418,138.334
35.42,138.336
35.422,138.337
35.424,138.338
35.426,138.34
35.428,138.341
35.43,138.343
35.432,138.344
35.434,138.345
35.436,138.347
35.438,138.348
35.44,138.35
35.442,138.351
35.444,138.353
35.446,138.354
35.448,138.355
35.45,138.357
35.452,138.358
35.454,138.36
35.456,138.361
35.458,138.363
35.46,138.364
35.462,138.366
35.464,138.367
35.466,138.369
35.468,138.371
35.47,138.372
35.472,138.374
35.474,138.375
35.476,138.377
35.478,138.379
35.48,138.38
35.482,138.382
35.484,138.383
35.486,138.385
35.488,138.387
35.49,138.388
35.492,138.39
35.494,138.392
35.496,138.393
35.498,138.395
35.5,138.397
35.502,138.399
35.504,138.4
35.506,138.402
35.508,138.404
35.51,138.406
35.512,138.408
35.514,138.409
35.516,138.411
35.518,138.413
35.52,138.415
35.522,138.417
35.524,138.419
35.526,138.42
35.528,138.422
35.53,138.424
35.532,138.426
35.534,138.428
35.536,138.43
35.538,138.432
35.54,138.434
35.542,138.436
35.544,138.438
35.546,138.44
35.548,138.442
35.55,138.444
35.552,138.446
35.554,138.448
35.556,138.45
35.558,138.452
35.56,138.454
35.562,138.457
35.564,138.459
35.566,138.461
35.568,138.463
35.57,138.465
35.572,138.467
35.574,138.47
35.576,138.472
35.578,138.474
35.58,138.476
35.582,138.479
35.584,138.481
35.586,138.483
35.588,138.486
35.59,138.488
35.592,138.49
35.594,138.493
35.596,138.495
35.598,138.498
35.6,138.5
35.602,138.502
35.604,138.505
35.606,138.507
35.608,138.51
35.61,138.512
35.612,138.515
35.614,138.518
35.616,138.52
35.618,138.523
35.62,138.525
35.622,138.528
35.624,138.531
35.626,138.533
35.628,138.536
35.63,138.539
35.632,138.542
35.634,138.544
35.636,138.547
35.638,138.55
35.64,138.553
35.642,138.556
35.644,138.558
35.646,138.561
35.648,138.564
35.65,138.567
35.652,138.57
35.654,138.573
35.656,138.576
35.658,138.579
35.66,138.582
35.662,138.585
35.664,138.588
35.666,138.592
35.668,138.595
35.67,138.598
35.672,138.601
35.674,138.604
35.676,138.608
35.678,138.611
35.68,138.614
35.682,138.617
35.684,138.621
35.686,138.624
35.688,138.628
35.69,138.631
35.692,138.634
35.694,138.638
35.696,138.642
35.698,138.645
35.7,138.649
35.702,138.652
35.704,138.656
35.706,138.66
35.708,138.663
35.71,138.667
35.712,138.671
35.714,138.675
35.716,138.678
35.718,138.682
35.72,138.686
35.722,138.69
35.724,138.694
35.726,138.698
35.728,138.702
35.73,138.706
35.732,138.71
35.734,138.714
35.736,138.719
35.738,138.723
35.74,138.727
35.742,138.731
35.744,138.736
35.746,138.74
35.748,138.744
35.75,138.749
35.752,138.753
35.754,138.758
35.756,138.762
35.758,138.767
35.76,138.772
35.762,138.776
35.764,138.781
35.766,138.786
35.768,138.791
35.77,138.795
35.772,138.8
35.774,138.805
35.776,138.81
35.778,138.815
35.78,138.82
35.782,138.825
35.784,138.831
35.786,138.836
35.788,138.841
35.79,138.846
35.792,138.852
35.794,138.857
35.796,138.863
35.798,138.868
35.8,138.874
35.802,138.879
35.804,138.885
35.806,138.891
35.808,138.897
35.81,138.902
35.812,138.908
35.814,138.914
35.816,138.92
35.818,138.926
35.82,138.933
35.822,138.939
35.824,138.945
35.826,138.951
35.828,138.958
35.83,138.964
35.832,138.971
35.834,138.977
35.836,138.984
35.838,138.991
35.84,138.997
35.842,139.004
35.844,139.011
35.846,139.018
35.848,139.025
35.85,139.032
35.852,139.039
35.854,139.047
35.856,139.054
35.858,139.061
35.86,139.069
35.862,139.077
35.864,139.084
35.866,139.092
35.868,139.1
35.87,139.108
35.872,139.116
35.874,139.124
35.876,139.132
35.878,139.14
35.88,139.148
35.882,139.157
35.884,139.165
35.886,139.174
35.888,139.183
35.89,139.191
35.892,139.2
35.894,139.209
35.896,139.218
35.898,139.228
35.9,139.237
35.902,139.246
35.904,139.256
35.906,139.265
35.908,139.275
35.91,139.285
35.912,139.295
35.914,139.305
35.916,139.315
35.918,139.326
35.92,139.336
35.922,139.346
35.924,139.357
35.926,139.368
35.928,139.379
35.93,139.39
35.932,139.401
35.934,139.412
35.936,139.424
35.938,139.435
35.94,139.447
35.942,139.459
35.944,139.471
35.946,139.483
35.948,139.495
35.95,139.508
35.952,139.52
35.954,139.533
35.956,139.546
35.958,139.559
35.96,139.572
35.962,139.585
35.964,139.599
35.966,139.613
35.968,139.627
35.97,139.641
35.972,139.655
35.974,139.669
35.976,139.684
35.978,139.699
35.98,139.714
35.982,139.729
35.984,139.744
35.986,139.76
35.988,139.775
35.99,139.791
35.992,139.808
35.994,139.824
35.996,139.841
35.998,139.857
36,139.875
36.002,139.892
36.004,139.909
36.006,139.927
36.008,139.945
36.01,139.963
36.012,139.982
36.014,140.001
36.016,140.02
36.018,140.039
36.02,140.058
36.022,140.078
36.024,140.098
36.026,140.119
36.028,140.139
36.03,140.16
36.032,140.182
36.034,140.203
36.036,140.225
36.038,140.247
36.04,140.27
36.042,140.292
36.044,140.316
36.046,140.339
36.048,140.363
36.05,140.387
36.052,140.412
36.054,140.437
36.056,140.462
36.058,140.488
36.06,140.514
36.062,140.54
36.064,140.567
36.066,140.594
36.068,140.622
36.07,140.65
36.072,140.679
36.074,140.707
36.076,140.737
36.078,140.767
36.08,140.797
36.082,140.828
36.084,140.859
36.086,140.891
36.088,140.923
36.09,140.956
36.092,140.99
36.094,141.024
36.096,141.058
36.098,141.093
36.1,141.129
36.102,141.165
36.104,141.202
36.106,141.239
36.108,141.277
36.11,141.316
36.112,141.355
36.114,141.395
36.116,141.436
36.118,141.477
36.12,141.519
36.122,141.562
36.124,141.605
36.126,141.649
36.128,141.694
36.13,141.74
36.132,141.787
36.134,141.834
36.136,141.882
36.138,141.931
36.14,141.981
36.142,142.032
36.144,142.084
36.146,142.136
36.148,142.19
36.15,142.244
36.152,142.3
36.154,142.356
36.156,142.414
36.158,142.473
36.16,142.532
36.162,142.593
36.164,142.655
36.166,142.718
36.168,142.782
36.17,142.848
36.172,142.914
36.174,142.982
36.176,143.052
36.178,143.122
36.18,143.194
36.182,143.267
36.184,143.342
36.186,143.418
36.188,143.495
36.19,143.574
36.192,143.655
36.194,143.737
36.196,143.821
36.198,143.906
36.2,143.993
36.202,144.081
36.204,144.172
36.206,144.264
36.208,144.358
36.21,144.454
36.212,144.551
36.214,144.651
36.216,144.752
36.218,144.856
36.22,144.961
36.222,145.069
36.224,145.179
36.226,145.291
36.228,145.405
36.23,145.521
36.232,145.64
36.234,145.761
36.236,145.884
36.238,146.01
36.24,146.138
36.242,146.269
36.244,146.402
36.246,146.538
36.248,146.677
36.25,146.818
36.252,146.962
36.254,147.108
36.256,147.258
36.258,147.41
36.26,147.565
36.262,147.723
36.264,147.884
36.266,148.048
36.268,148.215
36.27,148.385
36.272,148.557
36.274,148.733
36.276,148.912
36.278,149.094
36.28,149.279
36.282,149.467
36.284,149.658
36.286,149.853
36.288,150.05
36.29,150.25
36.292,150.453
36.294,150.659
36.296,150.868
36.298,151.08
36.3,151.295
36.302,151.512
36.304,151.732
36.306,151.955
36.308,152.18
36.31,152.407
36.312,152.636
36.314,152.867
36.316,153.101
36.318,153.335
36.32,153.572
36.322,153.809
36.324,154.048
36.326,154.288
36.328,154.528
36.33,154.768
36.332,155.009
36.334,155.249
36.336,155.489
36.338,155.727
36.34,155.965
36.342,156.201
36.344,156.434
36.346,156.666
36.348,156.894
36.35,157.119
36.352,157.34
36.354,157.558
36.356,157.77
36.358,157.978
36.36,158.18
36.362,158.376
36.364,158.565
36.366,158.748
36.368,158.923
36.37,159.09
36.372,159.249
36.374,159.399
36.376,159.54
36.378,159.671
36.38,159.792
36.382,159.903
36.384,160.003
36.386,160.092
36.388,160.17
36.39,160.236
36.392,160.291
36.394,160.333
36.396,160.364
36.398,160.382
36.4,160.388
36.402,160.382
36.404,160.364
36.406,160.333
36.408,160.291
36.41,160.236
36.412,160.17
36.414,160.092
36.416,160.003
36.418,159.903
36.42,159.792
36.422,159.671
36.424,159.54
36.426,159.399
36.428,159.249
36.43,159.09
36.432,158.923
36.434,158.748
36.436,158.565
36.438,158.376
36.44,158.18
36.442,157.978
36.444,157.77
36.446,157.558
36.448,157.34
36.45,157.119
36.452,156.894
36.454,156.666
36.456,156.434
36.458,156.201
36.46,155.965
36.462,155.727
36.464,155.489
36.466,155.249
36.468,155.009
36.47,154.768
36.472,154.528
36.474,154.288
36.476,154.048
36.478,153.809
36.48,153.572
36.482,153.335
36.484,153.101
36.486,152.867
36.488,152.636
36.49,152.407
36.492,152.18
36.494,151.955
36.496,151.732
36.498,151.512
36.5,151.295
36.502,151.08
36.504,150.868
36.506,150.659
36.508,150.453
36.51,150.25
36.512,150.05
36.514,149.853
36.516,149.658
36.518,149.467
36.52,149.279
36.522,149.094
36.524,148.912
36.526,148.733
36.528,148.557
36.53,148.385
36.532,148.215
36.534,148.048
36.536,147.884
36.538,147.723
36.54,147.565
36.542,147.41
36.544,147.258
36.546,147.108
36.548,146.962
36.55,146.818
36.552,146.677
36.554,146.538
36.556,146.402
36.558,146.269
36.56,146.138
36.562,146.01
36.564,145.884
36.566,145.761
36.568,145.64
36.57,145.521
36.572,145.405
36.574,145.291
36.576,145.179
36.578,145.069
36.58,144.961
36.582,144.856
36.584,144.752
36.586,144.651
36.588,144.551
36.59,144.454
36.592,144.358
36.594,144.264
36.596,144.172
36.598,144.081
36.6,143.993
36.602,143.906
36.604,143.821
36.606,143.737
36.608,143.655
36.61,143.574
36.612,143.495
36.614,143.418
36.616,143.342
36.618,143.267
36.62,143.194
36.622,143.122
36.624,143.052
36.626,142.982
36.628,142.914
36.63,142.848
36.632,142.782
36.634,142.718
36.636,142.655
36.638,142.593
36.64,142.532
36.642,142.473
36.644,142.414
36.646,142.356
36.648,142.3
36.65,142.244
36.652,142.19
36.654,142.136
36.656,142.084
36.658,142.032
36.66,141.981
36.662,141.931
36.664,141.882
36.666,141.834
36.668,141.787
36.67,141.74
36.672,141.694
36.674,141.649
36.676,141.605
36.678,141.562
36.68,141.519
36.682,141.477
36.684,141.436
36.686,141.395
36.688,141.355
36.69,141.316
36.692,141.277
36.694,141.239
36.696,141.202
36.698,141.165
36.7,141.129
36.702,141.093
36.704,141.058
36.706,141.024
36.708,140.99
36.71,140.956
36.712,140.923
36.714,140.891
36.716,140.859
36.718,140.828
36.72,140.797
36.722,140.767
36.724,140.737
36.726,140.707
36.728,140.679
36.73,140.65
36.732,140.622
36.734,140.594
36.736,140.567
36.738,140.54
36.74,140.514
36.742,140.488
36.744,140.462
36.746,140.437
36.748,140.412
36.75,140.387
36.752,140.363
36.754,140.339
36.756,140.316
36.758,140.292
36.76,140.27
36.762,140.247
36.764,140.225
36.766,140.203
36.768,140.182
36.77,140.16
36.772,140.139
36.774,140.119
36.776,140.098
36.778,140.078
36.78,140.058
36.782,140.039
36.784,140.02
36.786,140.001
36.788,139.982
36.79,139.963
36.792,139.945
36.794,139.927
36.796,139.909
36.798,139.892
36.8,139.875
36.802,139.857
36.804,139.841
36.806,139.824
36.808,139.808
36.81,139.791
36.812,139.775
36.814,139.76
36.816,139.744
36.818,139.729
36.82,139.714
36.822,139.699
36.824,139.684
36.826,139.669
36.828,139.655
36.83,139.641
36.832,139.627
36.834,139.613
36.836,139.599
36.838,139.585
36.84,139.572
36.842,139.559
36.844,139.546
36.846,139.533
36.848,139.52
36.85,139.508
36.852,139.495
36.854,139.483
36.856,139.471
36.858,139.459
36.86,139.447
36.862,139.435
36.864,139.424
36.866,139.412
36.868,139.401
36.87,139.39
36.872,139.379
36.874,139.368
36.876,139.357
36.878,139.346
36.88,139.336
36.882,139.326
36.884,139.315
36.886,139.305
36.888,139.295
36.89,139.285
36.892,139.275
36.894,139.265
36.896,139.256
36.898,139.246
36.9,139.237
36.902,139.228
36.904,139.218
36.906,139.209
36.908,139.2
36.91,139.191
36.912,139.183
36.914,139.174
36.916,139.165
36.918,139.157
36.92,139.148
36.922,139.14
36.924,139.132
36.926,139.124
36.928,139.116
36.93,139.108
36.932,139.1
36.934,139.092
36.936,139.084
36.938,139.077
36.94,139.069
36.942,139.061
36.944,139.054
36.946,139.047
36.948,139.039
36.95,139.032
36.952,139.025
36.954,139.018
36.956,139.011
36.958,139.004
36.96,138.997
36.962,138.991
36.964,138.984
36.966,138.977
36.968,138.971
36.97,138.964
36.972,138.958
36.974,138.951
36.976,138.945
36.978,138.939
36.98,138.933
36.982,138.926
36.984,138.92
36.986,138.914
36.988,138.908
36.99,138.902
36.992,138.897
36.994,138.891
36.996,138.885
36.998,138.879
37,138.874
37.002,138.868
37.004,138.863
37.006,138.857
37.008,138.852
37.01,138.846
37.012,138.841
37.014,138.836
37.016,138.831
37.018,138.825
37.02,138.82
37.022,138.815
37.024,138.81
37.026,138.805
37.028,138.8
37.03,138.795
37.032,138.791
37.034,138.786
37.036,138.781
37.038,138.776
37.04,138.772
37.042,138.767
37.044,138.762
37.046,138.758
37.048,138.753
37.05,138.749
37.052,138.744
37.054,138.74
37.056,138.736
37.058,138.731
37.06,138.727
37.062,138.723
37.064,138.719
37.066,138.714
37.068,138.71
37.07,138.706
37.072,138.702
37.074,138.698
37.076,138.694
37.078,138.69
37.08,138.686
37.082,138.682
37.084,138.678
37.086,138.675
37.088,138.671
37.09,138.667
37.092,138.663
37.094,138.66
37.096,138.656
37.098,138.652
37.1,138.649
37.102,138.645
37.104,138.642
37.106,138.638
37.108,138.634
37.11,138.631
37.112,138.628
37.114,138.624
37.116,138.621
37.118,138.617
37.12,138.614
37.122,138.611
37.124,138.608
37.126,138.604
37.128,138.601
37.13,138.598
37.132,138.595
37.134,138.592
37.136,138.588
37.138,138.585
37.14,138.582
37.142,138.579
37.144,138.576
37.146,138.573
37.148,138.57
37.15,138.567
37.152,138.564
37.154,138.561
37.156,138.558
37.158,138.556
37.16,138.553
37.162,138.55
37.164,138.547
37.166,138.544
37.168,138.542
37.17,138.539
37.172,138.536
37.174,138.533
37.176,138.531
37.178,138.528
37.18,138.525
37.182,138.523
37.184,138.52
37.186,138.518
37.188,138.515
37.19,138.512
37.192,138.51
37.194,138.507
37.196,138.505
37.198,138.502
37.2,138.5
37.202,138.498
37.204,138.495
37.206,138.493
37.208,138.49
37.21,138.488
37.212,138.486
37.214,138.483
37.216,138.481
37.218,138.479
37.22,138.476
37.222,138.474
37.224,138.472
37.226,138.47
37.228,138.467
37.23,138.465
37.232,138.463
37.234,138.461
37.236,138.459
37.238,138.457
37.24,138.454
37.242,138.452
37.244,138.45
37.246,138.448
37.248,138.446
37.25,138.444
37.252,138.442
37.254,138.44
37.256,138.438
37.258,138.436
37.26,138.434
37.262,138.432
37.264,138.43
37.266,138.428
37.268,138.426
37.27,138.424
37.272,138.422
37.274,138.42
37.276,138.419
37.278,138.417
37.28,138.415
37.282,138.413
37.284,138.411
37.286,138.409
37.288,138.408
37.29,138.406
37.292,138.404
37.294,138.402
37.296,138.4
37.298,138.399
37.3,138.397
37.302,138.395
37.304,138.393
37.306,138.392
37.308,138.39
37.31,138.388
37.312,138.387
37.314,138.385
37.316,138.383
37.318,138.382
37.32,138.38
37.322,138.379
37.324,138.377
37.326,138.375
37.328,138.374
37.33,138.372
37.332,138.371
37.334,138.369
37.336,138.367
37.338,138.366
37.34,138.364
37.342,138.363
37.344,138.361
37.346,138.36
37.348,138.358
37.35,138.357
37.352,138.355
37.354,138.354
37.356,138.353
37.358,138.351
37.36,138.35
37.362,138.348
37.364,138.347
37.366,138.345
37.368,138.344
37.37,138.343
37.372,138.341
37.374,138.34
37.376,138.338
37.378,138.337
37.38,138.336
37.382,138.334
37.384,138.333
37.386,138.332
37.388,138.33
37.39,138.329
37.392,138.328
37.394,138.326
37.396,138.325
37.398,138.324
37.4,138.323
37.402,138.321
37.404,138.32
37.406,138.319
37.408,138.318
37.41,138.316
37.412,138.315
37.414,138.314
37.416,138.313
37.418,138.311
37.42,138.31
37.422,138.309
37.424,138.308
37.426,138.307
37.428,138.306
37.43,138.304
37.432,138.303
37.434,138.302
37.436,138.301
37.438,138.3
37.44,138.299
37.442,138.297
37.444,138.296
37.446,138.295
37.448,138.294
37.45,138.293
37.452,138.292
37.454,138.291
37.456,138.29
37.458,138.289
37.46,138.288
37.462,138.287
37.464,138.285
37.466,138.284
37.468,138.283
37.47,138.282
37.472,138.281
37.474,138.28
37.476,138.279
37.478,138.278
37.48,138.277
37.482,138.276
37.484,138.275
37.486,138.274
37.488,138.273
37.49,138.272
37.492,138.271
37.494,138.27
37.496,138.269
37.498,138.268
37.5,138.267
37.502,138.266
37.504,138.265
37.506,138.264
37.508,138.263
37.51,138.263
37.512,138.262
37.514,138.261
37.516,138.26
37.518,138.259
37.52,138.258
37.522,138.257
37.524,138.256
37.526,138.255
37.528,138.254
37.53,138.253
37.532,138.253
37.534,138.252
37.536,138.251
37.538,138.25
37.54,138.249
37.542,138.248
37.544,138.247
37.546,138.246
37.548,138.246
37.55,138.245
37.552,138.244
37.554,138.243
37.556,138.242
37.558,138.241
37.56,138.241
37.562,138.24
37.564,138.239
37.566,138.238
37.568,138.237
37.57,138.237
37.572,138.236
37.574,138.235
37.576,138.234
37.578,138.233
37.58,138.233
37.582,138.232
37.584,138.231
37.586,138.23
37.588,138.23
37.59,138.229
37.592,138.228
37.594,138.227
37.596,138.227
37.598,138.226
37.6,138.225
37.602,138.224
37.604,138.224
37.606,138.223
37.608,138.222
37.61,138.221
37.612,138.221
37.614,138.22
37.616,138.219
37.618,138.218
37.62,138.218
37.622,138.217
37.624,138.216
37.626,138.216
37.628,138.215
37.63,138.214
37.632,138.214
37.634,138.213
37.636,138.212
37.638,138.212
37.64,138.211
37.642,138.21
37.644,138.21
37.646,138.209
37.648,138.208
37.65,138.208
37.652,138.207
37.654,138.206
37.656,138.206
37.658,138.205
37.66,138.204
37.662,138.204
37.664,138.203
37.666,138.202
37.668,138.202
37.67,138.201
37.672,138.2
37.674,138.2
37.676,138.199
37.678,138.199
37.68,138.198
37.682,138.197
37.684,138.197
37.686,138.196
37.688,138.196
37.69,138.195
37.692,138.194
37.694,138.194
37.696,138.193
37.698,138.193
37.7,138.192
37.702,138.191
37.704,138.191
37.706,138.19
37.708,138.19
37.71,138.189
37.712,138.189
37.714,138.188
37.716,138.187
37.718,138.187
37.72,138.186
37.722,138.186
37.724,138.185
37.726,138.185
37.728,138.184
37.73,138.184
37.732,138.183
37.734,138.182
37.736,138.182
37.738,138.181
37.74,138.181
37.742,138.18
37.744,138.18
37.746,138.179
37.748,138.179
37.75,138.178
37.752,138.178
37.754,138.177
37.756,138.177
37.758,138.176
37.76,138.176
37.762,138.175
37.764,138.175
37.766,138.174
37.768,138.174
37.77,138.173
37.772,138.173
37.774,138.172
37.776,138.172
37.778,138.171
37.78,138.171
37.782,138.17
37.784,138.17
37.786,138.169
37.788,138.169
37.79,138.168
37.792,138.168
37.794,138.167
37.796,138.167
37.798,138.166
37.8,138.166
37.802,138.165
37.804,138.165
37.806,138.164
37.808,138.164
37.81,138.163
37.812,138.163
37.814,138.163
37.816,138.162
37.818,138.162
37.82,138.161
37.822,138.161
37.824,138.16
37.826,138.16
37.828,138.159
37.83,138.159
37.832,138.158
37.834,138.158
37.836,138.158
37.838,138.157
37.84,138.157
37.842,138.156
37.844,138.156
37.846,138.155
37.848,138.155
37.85,138.155
37.852,138.154
37.854,138.154
37.856,138.153
37.858,138.153
37.86,138.153
37.862,138.152
37.864,138.152
37.866,138.151
37.868,138.151
37.87,138.15
37.872,138.15
37.874,138.15
37.876,138.149
37.878,138.149
37.88,138.148
37.882,138.148
37.884,138.148
37.886,138.147
37.888,138.147
37.89,138.146
37.892,138.146
37.894,138.146
37.896,138.145
37.898,138.145
37.9,138.145
37.902,138.144
37.904,138.144
37.906,138.143
37.908,138.143
37.91,138.143
37.912,138.142
37.914,138.142
37.916,138.142
37.918,138.141
37.92,138.141
37.922,138.14
37.924,138.14
37.926,138.14
37.928,138.139
37.93,138.139
37.932,138.139
37.934,138.138
37.936,138.138
37.938,138.138
37.94,138.137
37.942,138.137
37.944,138.136
37.946,138.136
37.948,138.136
37.95,138.135
37.952,138.135
37.954,138.135
37.956,138.134
37.958,138.134
37.96,138.134
37.962,138.133
37.964,138.133
37.966,138.133
37.968,138.132
37.97,138.132
37.972,138.132
37.974,138.131
37.976,138.131
37.978,138.131
37.98,138.13
37.982,138.13
37.984,138.13
37.986,138.129
37.988,138.129
37.99,138.129
37.992,138.128
37.994,138.128
37.996,138.128
37.998,138.127
37.999,138.127