File: boron_diamond/dubrovinskaia_2006/tc1.41/xrd/curve_total_fit.dat
36.5,143.8
36.51,143.958
36.52,144.119
36.53,144.282
36.54,144.448
36.55,144.618
36.56,144.79
36.57,144.965
36.58,145.143
36.59,145.325
36.6,145.51
36.61,145.698
36.62,145.889
36.63,146.084
36.64,146.283
36.65,146.486
36.66,146.692
36.67,146.902
36.68,147.116
36.69,147.334
36.7,147.556
36.71,147.782
36.72,148.013
36.73,148.249
36.74,148.489
36.75,148.733
36.76,148.983
36.77,149.238
36.78,149.497
36.79,149.762
36.8,150.033
36.81,150.308
36.82,150.59
36.83,150.878
36.84,151.171
36.85,151.471
36.86,151.777
36.87,152.089
36.88,152.409
36.89,152.735
36.9,153.068
36.91,153.409
36.92,153.757
36.93,154.113
36.94,154.477
36.95,154.85
36.96,155.23
36.97,155.62
36.98,156.018
36.99,156.426
37,156.843
37.01,157.271
37.02,157.708
37.03,158.156
37.04,158.615
37.05,159.085
37.06,159.566
37.07,160.06
37.08,160.565
37.09,161.084
37.1,161.616
37.11,162.161
37.12,162.72
37.13,163.294
37.14,163.883
37.15,164.488
37.16,165.109
37.17,165.746
37.18,166.401
37.19,167.074
37.2,167.765
37.21,168.476
37.22,169.206
37.23,169.958
37.24,170.73
37.25,171.526
37.26,172.344
37.27,173.186
37.28,174.054
37.29,174.947
37.3,175.867
37.31,176.816
37.32,177.794
37.33,178.802
37.34,179.842
37.35,180.915
37.36,182.022
37.37,183.166
37.38,184.346
37.39,185.566
37.4,186.827
37.41,188.13
37.42,189.477
37.43,190.871
37.44,192.313
37.45,193.806
37.46,195.352
37.47,196.954
37.48,198.614
37.49,200.335
37.5,202.12
37.51,203.972
37.52,205.894
37.53,207.891
37.54,209.965
37.55,212.12
37.56,214.361
37.57,216.692
37.58,219.119
37.59,221.645
37.6,224.277
37.61,227.019
37.62,229.879
37.63,232.863
37.64,235.977
37.65,239.229
37.66,242.627
37.67,246.179
37.68,249.895
37.69,253.784
37.7,257.856
37.71,262.122
37.72,266.595
37.73,271.287
37.74,276.211
37.75,281.383
37.76,286.817
37.77,292.531
37.78,298.543
37.79,304.872
37.8,311.538
37.81,318.565
37.82,325.976
37.83,333.797
37.84,342.055
37.85,350.779
37.86,360.002
37.87,369.757
37.88,380.08
37.89,391.009
37.9,402.585
37.91,414.852
37.92,427.854
37.93,441.64
37.94,456.26
37.95,471.766
37.96,488.212
37.97,505.651
37.98,524.14
37.99,543.732
38,564.479
38.01,586.428
38.02,609.624
38.03,634.098
38.04,659.874
38.05,686.956
38.06,715.331
38.07,744.959
38.08,775.768
38.09,807.648
38.1,840.444
38.11,873.949
38.12,907.898
38.13,941.965
38.14,975.755
38.15,1008.81
38.16,1040.62
38.17,1070.61
38.18,1098.19
38.19,1122.76
38.2,1143.72
38.21,1160.54
38.22,1172.76
38.23,1180.03
38.24,1182.14
38.25,1179.03
38.26,1170.79
38.27,1157.66
38.28,1140.01
38.29,1118.32
38.3,1093.13
38.31,1065.03
38.32,1034.65
38.33,1002.56
38.34,969.323
38.35,935.447
38.36,901.374
38.37,867.487
38.38,834.099
38.39,801.464
38.4,769.779
38.41,739.189
38.42,709.796
38.43,681.667
38.44,654.834
38.45,629.309
38.46,605.082
38.47,582.128
38.48,560.412
38.49,539.891
38.5,520.514
38.51,502.231
38.52,484.986
38.53,468.724
38.54,453.392
38.55,438.936
38.56,425.304
38.57,412.446
38.58,400.315
38.59,388.866
38.6,378.056
38.61,367.845
38.62,358.195
38.63,349.07
38.64,340.437
38.65,332.265
38.66,324.525
38.67,317.19
38.68,310.234
38.69,303.634
38.7,297.367
38.71,291.414
38.72,285.755
38.73,280.372
38.74,275.249
38.75,270.37
38.76,265.722
38.77,261.289
38.78,257.061
38.79,253.025
38.8,249.17
38.81,245.486
38.82,241.964
38.83,238.595
38.84,235.37
38.85,232.281
38.86,229.322
38.87,226.485
38.88,223.764
38.89,221.153
38.9,218.646
38.91,216.239
38.92,213.925
38.93,211.701
38.94,209.561
38.95,207.502
38.96,205.521
38.97,203.612
38.98,201.773
38.99,200.001
39,198.291
39.01,196.643
39.02,195.052
39.03,193.516
39.04,192.033
39.05,190.6
39.06,189.215
39.07,187.877
39.08,186.582
39.09,185.329
39.1,184.117
39.11,182.944
39.12,181.808
39.13,180.707
39.14,179.64
39.15,178.607
39.16,177.604
39.17,176.632
39.18,175.689
39.19,174.774
39.2,173.885
39.21,173.023
39.22,172.185
39.23,171.371
39.24,170.581
39.25,169.812
39.26,169.065
39.27,168.338
39.28,167.631
39.29,166.944
39.3,166.274
39.31,165.623
39.32,164.989
39.33,164.371
39.34,163.769
39.35,163.183
39.36,162.612
39.37,162.056
39.38,161.513
39.39,160.984
39.4,160.468
39.41,159.964
39.42,159.473
39.43,158.994
39.44,158.526
39.45,158.07
39.46,157.624
39.47,157.189
39.48,156.764
39.49,156.349
39.5,155.943
39.51,155.547
39.52,155.16
39.53,154.782
39.54,154.412
39.55,154.051
39.56,153.698
39.57,153.353
39.58,153.017
39.59,152.687
39.6,152.366
39.61,152.052
39.62,151.746
39.63,151.447
39.64,151.155
39.65,150.871
39.66,150.594
39.67,150.325
39.68,150.063
39.69,149.809
39.7,149.563
39.71,149.325
39.72,149.095
39.73,148.874
39.74,148.661
39.75,148.457
39.76,148.263
39.77,148.078
39.78,147.904
39.79,147.739
39.8,147.586
39.81,147.444
39.82,147.314
39.83,147.195
39.84,147.089
39.85,146.996
39.86,146.916
39.87,146.849
39.88,146.796
39.89,146.757
39.9,146.731
39.91,146.719
39.92,146.72
39.93,146.735
39.94,146.762
39.95,146.802
39.96,146.854
39.97,146.917
39.98,146.989
39.99,147.071
40,147.16
40.01,147.256
40.02,147.356
40.03,147.46
40.04,147.566
40.05,147.672
40.06,147.775
40.07,147.875
40.08,147.969
40.09,148.055
40.1,148.132
40.11,148.198
40.12,148.25
40.13,148.288
40.14,148.309
40.15,148.313
40.16,148.298
40.17,148.263
40.18,148.207
40.19,148.13
40.2,148.031
40.21,147.91
40.22,147.767
40.23,147.603
40.24,147.418
40.25,147.213
40.26,146.989
40.27,146.746
40.28,146.487
40.29,146.212
40.3,145.924
40.31,145.624
40.32,145.313
40.33,144.994
40.34,144.669
40.35,144.338
40.36,144.005
40.37,143.67
40.38,143.336
40.39,143.004
40.4,142.676
40.41,142.353
40.42,142.035
40.43,141.726
40.44,141.424
40.45,141.132
40.46,140.85
40.47,140.578
40.48,140.318
40.49,140.068