File: boron_diamond/dubrovinskaia_2006/tc1.41/xrd/curve_2_fit.dat
36.5,7.6357e-98
36.51,2.58052e-97
36.52,8.6923e-97
36.53,2.91831e-96
36.54,9.76553e-96
36.55,3.25709e-95
36.56,1.08276e-94
36.57,3.58759e-94
36.58,1.18479e-93
36.59,3.89988e-93
36.6,1.27947e-92
36.61,4.18384e-92
36.62,1.36361e-91
36.63,4.42968e-91
36.64,1.43425e-90
36.65,4.62856e-90
36.66,1.4888e-89
36.67,4.77302e-89
36.68,1.52518e-88
36.69,4.85754e-88
36.7,1.54199e-87
36.71,4.87881e-87
36.72,1.53856e-86
36.73,4.836e-86
36.74,1.51504e-85
36.75,4.73079e-85
36.76,1.47235e-84
36.77,4.56726e-84
36.78,1.41211e-83
36.79,4.35163e-83
36.8,1.33661e-82
36.81,4.09189e-82
36.82,1.24857e-81
36.83,3.79727e-81
36.84,1.15106e-80
36.85,3.4777e-80
36.86,1.04727e-79
36.87,3.14332e-79
36.88,9.40352e-79
36.89,2.80389e-78
36.9,8.33296e-78
36.91,2.46835e-77
36.92,7.28757e-77
36.93,2.14451e-76
36.94,6.28987e-76
36.95,1.83876e-75
36.96,5.35766e-75
36.97,1.55595e-74
36.98,4.50384e-74
36.99,1.29939e-73
37,3.73651e-73
37.01,1.07093e-72
37.02,3.05932e-72
37.03,8.71077e-72
37.04,2.47205e-71
37.05,6.99241e-71
37.06,1.97136e-70
37.07,5.53952e-70
37.08,1.55149e-69
37.09,4.33104e-69
37.1,1.20505e-68
37.11,3.34185e-68
37.12,9.23715e-68
37.13,2.54482e-67
37.14,6.98787e-67
37.15,1.9125e-66
37.16,5.21708e-66
37.17,1.41847e-65
37.18,3.84401e-65
37.19,1.03828e-64
37.2,2.79522e-64
37.21,7.50041e-64
37.22,2.00596e-63
37.23,5.34724e-63
37.24,1.42071e-62
37.25,3.76226e-62
37.26,9.93027e-62
37.27,2.61242e-61
37.28,6.85003e-61
37.29,1.79024e-60
37.3,4.66336e-60
37.31,1.21075e-59
37.32,3.13314e-59
37.33,8.08115e-59
37.34,2.07747e-58
37.35,5.32313e-58
37.36,1.35946e-57
37.37,3.46047e-57
37.38,8.77955e-57
37.39,2.22013e-56
37.4,5.59568e-56
37.41,1.40571e-55
37.42,3.51972e-55
37.43,8.78393e-55
37.44,2.18494e-54
37.45,5.41698e-54
37.46,1.33858e-53
37.47,3.29685e-53
37.48,8.09327e-53
37.49,1.98024e-52
37.5,4.82924e-52
37.51,1.17384e-51
37.52,2.84386e-51
37.53,6.86715e-51
37.54,1.65277e-50
37.55,3.96478e-50
37.56,9.47966e-50
37.57,2.2591e-49
37.58,5.36596e-49
37.59,1.27036e-48
37.6,2.99762e-48
37.61,7.05009e-48
37.62,1.65265e-47
37.63,3.86132e-47
37.64,8.99207e-47
37.65,2.08714e-46
37.66,4.82852e-46
37.67,1.11338e-45
37.68,2.55884e-45
37.69,5.86152e-45
37.7,1.33828e-44
37.71,3.04545e-44
37.72,6.90756e-44
37.73,1.56159e-43
37.74,3.51867e-43
37.75,7.90238e-43
37.76,1.76891e-42
37.77,3.9466e-42
37.78,8.77626e-42
37.79,1.9452e-41
37.8,4.29722e-41
37.81,9.46193e-41
37.82,2.07654e-40
37.83,4.54224e-40
37.84,9.90303e-40
37.85,2.15197e-39
37.86,4.66091e-39
37.87,1.00618e-38
37.88,2.16495e-38
37.89,4.64291e-38
37.9,9.92432e-38
37.91,2.11437e-37
37.92,4.48981e-37
37.93,9.50265e-37
37.94,2.00461e-36
37.95,4.21487e-36
37.96,8.83298e-36
37.97,1.84501e-35
37.98,3.84113e-35
37.99,7.97054e-35
38,1.64849e-34
38.01,3.39823e-34
38.02,6.98212e-34
38.03,1.42985e-33
38.04,2.91853e-33
38.05,5.93752e-33
38.06,1.20397e-32
38.07,2.43329e-32
38.08,4.90164e-32
38.09,9.84141e-32
38.1,1.96944e-31
38.11,3.92822e-31
38.12,7.80941e-31
38.13,1.54742e-30
38.14,3.05611e-30
38.15,6.01586e-30
38.16,1.18031e-29
38.17,2.30813e-29
38.18,4.49879e-29
38.19,8.73975e-29
38.2,1.69227e-28
38.21,3.26597e-28
38.22,6.28234e-28
38.23,1.20448e-27
38.24,2.30169e-27
38.25,4.38391e-27
38.26,8.32236e-27
38.27,1.57471e-26
38.28,2.96976e-26
38.29,5.58228e-26
38.3,1.04585e-25
38.31,1.95299e-25
38.32,3.63493e-25
38.33,6.74313e-25
38.34,1.2468e-24
38.35,2.29773e-24
38.36,4.22056e-24
38.37,7.72699e-24
38.38,1.41e-23
38.39,2.56447e-23
38.4,4.64883e-23
38.41,8.3996e-23
38.42,1.51266e-22
38.43,2.71516e-22
38.44,4.85754e-22
38.45,8.66176e-22
38.46,1.53945e-21
38.47,2.72705e-21
38.48,4.81491e-21
38.49,8.47332e-21
38.5,1.48623e-20
38.51,2.5983e-20
38.52,4.52752e-20
38.53,7.86322e-20
38.54,1.36116e-19
38.55,2.34847e-19
38.56,4.03861e-19
38.57,6.92224e-19
38.58,1.18258e-18
38.59,2.01364e-18
38.6,3.41745e-18
38.61,5.78086e-18
38.62,9.74654e-18
38.63,1.63786e-17
38.64,2.7433e-17
38.65,4.5797e-17
38.66,7.62027e-17
38.67,1.26378e-16
38.68,2.08902e-16
38.69,3.44177e-16
38.7,5.65184e-16
38.71,9.25053e-16
38.72,1.50908e-15
38.73,2.45373e-15
38.74,3.97657e-15
38.75,6.42334e-15
38.76,1.03414e-14
38.77,1.65947e-14
38.78,2.65416e-14
38.79,4.23111e-14
38.8,6.72279e-14
38.81,1.06467e-13
38.82,1.68053e-13
38.83,2.64391e-13
38.84,4.14588e-13
38.85,6.47971e-13
38.86,1.0094e-12
38.87,1.56725e-12
38.88,2.42541e-12
38.89,3.74109e-12
38.9,5.75149e-12
38.91,8.81315e-12
38.92,1.34602e-11
38.93,2.04899e-11
38.94,3.10883e-11
38.95,4.70135e-11
38.96,7.08626e-11
38.97,1.06459e-10
38.98,1.59409e-10
38.99,2.3791e-10
39,3.53902e-10
39.01,5.24712e-10
39.02,7.75404e-10
39.03,1.1421e-09
39.04,1.67667e-09
39.05,2.45336e-09
39.06,3.57802e-09
39.07,5.20108e-09
39.08,7.53551e-09
39.09,1.08818e-08
39.1,1.56624e-08
39.11,2.2469e-08
39.12,3.21275e-08
39.13,4.57868e-08
39.14,6.50386e-08
39.15,9.20813e-08
39.16,1.29939e-07
39.17,1.82759e-07
39.18,2.56203e-07
39.19,3.57981e-07
39.2,4.98544e-07
39.21,6.92016e-07
39.22,9.57409e-07
39.23,1.32022e-06
39.24,1.81454e-06
39.25,2.48573e-06
39.26,3.39399e-06
39.27,4.61886e-06
39.28,6.26511e-06
39.29,8.47014e-06
39.3,1.14136e-05
39.31,1.53293e-05
39.32,2.05206e-05
39.33,2.73796e-05
39.34,3.64111e-05
39.35,4.82623e-05
39.36,6.37604e-05
39.37,8.39582e-05
39.38,0.00011019
39.39,0.000144143
39.4,0.000187937
39.41,0.00024423
39.42,0.00031634
39.43,0.000408393
39.44,0.000525499
39.45,0.000673959
39.46,0.000861518
39.47,0.00109765
39.48,0.0013939
39.49,0.00176428
39.5,0.00222573
39.51,0.00279864
39.52,0.00350744
39.53,0.00438129
39.54,0.00545484
39.55,0.0067691
39.56,0.00837238
39.57,0.0103213
39.58,0.0126821
39.59,0.0155315
39.6,0.0189586
39.61,0.0230658
39.62,0.0279704
39.63,0.0338062
39.64,0.0407253
39.65,0.0488991
39.66,0.0585201
39.67,0.0698038
39.68,0.0829891
39.69,0.0983405
39.7,0.116148
39.71,0.136729
39.72,0.160427
39.73,0.187613
39.74,0.218685
39.75,0.254063
39.76,0.294194
39.77,0.339543
39.78,0.390592
39.79,0.447839
39.8,0.511787
39.81,0.582941
39.82,0.661803
39.83,0.748863
39.84,0.844586
39.85,0.949411
39.86,1.06374
39.87,1.1879
39.88,1.3222
39.89,1.46684
39.9,1.62195
39.91,1.78756
39.92,1.9636
39.93,2.14987
39.94,2.34607
39.95,2.55176
39.96,2.76634
39.97,2.9891
39.98,3.21917
39.99,3.45555
40,3.69708
40.01,3.94247
40.02,4.19032
40.03,4.4391
40.04,4.68717
40.05,4.93282
40.06,5.17427
40.07,5.40968
40.08,5.63719
40.09,5.85494
40.1,6.06109
40.11,6.25386
40.12,6.43152
40.13,6.59247
40.14,6.73522
40.15,6.85841
40.16,6.96089
40.17,7.04164
40.18,7.0999
40.19,7.13508
40.2,7.14685
40.21,7.13508
40.22,7.0999
40.23,7.04164
40.24,6.96089
40.25,6.85841
40.26,6.73522
40.27,6.59247
40.28,6.43152
40.29,6.25386
40.3,6.06109
40.31,5.85494
40.32,5.63719
40.33,5.40968
40.34,5.17427
40.35,4.93282
40.36,4.68717
40.37,4.4391
40.38,4.19032
40.39,3.94247
40.4,3.69708
40.41,3.45555
40.42,3.21917
40.43,2.9891
40.44,2.76634
40.45,2.55176
40.46,2.34607
40.47,2.14987
40.48,1.9636
40.49,1.78756