File: boron_diamond/dubrovinskaia_2006/tc1.41/xrd/curve_1_fit.dat
36.5,13.8
36.51,13.9579
36.52,14.1186
36.53,14.2821
36.54,14.4484
36.55,14.6176
36.56,14.7898
36.57,14.965
36.58,15.1433
36.59,15.3249
36.6,15.5097
36.61,15.6978
36.62,15.8894
36.63,16.0845
36.64,16.2832
36.65,16.4855
36.66,16.6917
36.67,16.9017
36.68,17.1157
36.69,17.3337
36.7,17.5559
36.71,17.7824
36.72,18.0133
36.73,18.2487
36.74,18.4887
36.75,18.7334
36.76,18.983
36.77,19.2375
36.78,19.4972
36.79,19.7622
36.8,20.0326
36.81,20.3085
36.82,20.5901
36.83,20.8776
36.84,21.1711
36.85,21.4708
36.86,21.7768
36.87,22.0894
36.88,22.4087
36.89,22.735
36.9,23.0683
36.91,23.409
36.92,23.7573
36.93,24.1133
36.94,24.4773
36.95,24.8495
36.96,25.2302
36.97,25.6197
36.98,26.0182
36.99,26.426
37,26.8433
37.01,27.2706
37.02,27.708
37.03,28.1559
37.04,28.6147
37.05,29.0846
37.06,29.5662
37.07,30.0596
37.08,30.5654
37.09,31.084
37.1,31.6157
37.11,32.161
37.12,32.7204
37.13,33.2944
37.14,33.8834
37.15,34.4881
37.16,35.1088
37.17,35.7463
37.18,36.4011
37.19,37.0738
37.2,37.7651
37.21,38.4757
37.22,39.2063
37.23,39.9576
37.24,40.7304
37.25,41.5255
37.26,42.3438
37.27,43.1862
37.28,44.0536
37.29,44.947
37.3,45.8675
37.31,46.816
37.32,47.7938
37.33,48.8021
37.34,49.8421
37.35,50.9151
37.36,52.0225
37.37,53.1657
37.38,54.3464
37.39,55.5661
37.4,56.8266
37.41,58.1296
37.42,59.4769
37.43,60.8708
37.44,62.3131
37.45,63.8062
37.46,65.3523
37.47,66.9541
37.48,68.6141
37.49,70.3351
37.5,72.12
37.51,73.9721
37.52,75.8944
37.53,77.8907
37.54,79.9646
37.55,82.12
37.56,84.3611
37.57,86.6925
37.58,89.1188
37.59,91.6451
37.6,94.2767
37.61,97.0194
37.62,99.8793
37.63,102.863
37.64,105.977
37.65,109.229
37.66,112.627
37.67,116.179
37.68,119.895
37.69,123.784
37.7,127.856
37.71,132.122
37.72,136.595
37.73,141.287
37.74,146.211
37.75,151.383
37.76,156.817
37.77,162.531
37.78,168.543
37.79,174.872
37.8,181.538
37.81,188.565
37.82,195.976
37.83,203.797
37.84,212.055
37.85,220.779
37.86,230.002
37.87,239.757
37.88,250.08
37.89,261.009
37.9,272.585
37.91,284.852
37.92,297.854
37.93,311.64
37.94,326.26
37.95,341.766
37.96,358.212
37.97,375.651
37.98,394.14
37.99,413.732
38,434.479
38.01,456.428
38.02,479.624
38.03,504.098
38.04,529.874
38.05,556.956
38.06,585.331
38.07,614.959
38.08,645.768
38.09,677.648
38.1,710.444
38.11,743.949
38.12,777.898
38.13,811.965
38.14,845.755
38.15,878.811
38.16,910.619
38.17,940.612
38.18,968.195
38.19,992.761
38.2,1013.72
38.21,1030.54
38.22,1042.76
38.23,1050.03
38.24,1052.14
38.25,1049.03
38.26,1040.79
38.27,1027.66
38.28,1010.01
38.29,988.316
38.3,963.125
38.31,935.034
38.32,904.648
38.33,872.559
38.34,839.323
38.35,805.447
38.36,771.374
38.37,737.487
38.38,704.099
38.39,671.464
38.4,639.779
38.41,609.189
38.42,579.796
38.43,551.667
38.44,524.834
38.45,499.309
38.46,475.082
38.47,452.128
38.48,430.412
38.49,409.891
38.5,390.514
38.51,372.231
38.52,354.986
38.53,338.724
38.54,323.392
38.55,308.936
38.56,295.304
38.57,282.446
38.58,270.315
38.59,258.866
38.6,248.056
38.61,237.845
38.62,228.195
38.63,219.07
38.64,210.437
38.65,202.265
38.66,194.525
38.67,187.19
38.68,180.234
38.69,173.634
38.7,167.367
38.71,161.414
38.72,155.755
38.73,150.372
38.74,145.249
38.75,140.37
38.76,135.722
38.77,131.289
38.78,127.061
38.79,123.025
38.8,119.17
38.81,115.486
38.82,111.964
38.83,108.595
38.84,105.37
38.85,102.281
38.86,99.322
38.87,96.4851
38.88,93.7641
38.89,91.1531
38.9,88.6464
38.91,86.2386
38.92,83.9249
38.93,81.7005
38.94,79.5611
38.95,77.5024
38.96,75.5205
38.97,73.6119
38.98,71.773
38.99,70.0005
39,68.2915
39.01,66.6428
39.02,65.0519
39.03,63.5161
39.04,62.0329
39.05,60.6
39.06,59.2153
39.07,57.8766
39.08,56.5819
39.09,55.3294
39.1,54.1173
39.11,52.9439
39.12,51.8076
39.13,50.7069
39.14,49.6403
39.15,48.6065
39.16,47.6042
39.17,46.6321
39.18,45.689
39.19,44.7738
39.2,43.8855
39.21,43.0229
39.22,42.1852
39.23,41.3714
39.24,40.5806
39.25,39.812
39.26,39.0648
39.27,38.3381
39.28,37.6312
39.29,36.9435
39.3,36.2743
39.31,35.6229
39.32,34.9886
39.33,34.371
39.34,33.7694
39.35,33.1833
39.36,32.6122
39.37,32.0555
39.38,31.5128
39.39,30.9836
39.4,30.4676
39.41,29.9642
39.42,29.473
39.43,28.9937
39.44,28.5259
39.45,28.0692
39.46,27.6234
39.47,27.1879
39.48,26.7626
39.49,26.3471
39.5,25.9412
39.51,25.5444
39.52,25.1566
39.53,24.7776
39.54,24.4069
39.55,24.0445
39.56,23.6899
39.57,23.3432
39.58,23.0039
39.59,22.6719
39.6,22.347
39.61,22.029
39.62,21.7177
39.63,21.4129
39.64,21.1144
39.65,20.822
39.66,20.5357
39.67,20.2552
39.68,19.9804
39.69,19.711
39.7,19.4471
39.71,19.1884
39.72,18.9348
39.73,18.6861
39.74,18.4423
39.75,18.2032
39.76,17.9687
39.77,17.7387
39.78,17.513
39.79,17.2916
39.8,17.0744
39.81,16.8611
39.82,16.6519
39.83,16.4465
39.84,16.2448
39.85,16.0468
39.86,15.8524
39.87,15.6615
39.88,15.474
39.89,15.2898
39.9,15.1089
39.91,14.9312
39.92,14.7565
39.93,14.5849
39.94,14.4163
39.95,14.2505
39.96,14.0876
39.97,13.9275
39.98,13.77
39.99,13.6152
40,13.463
40.01,13.3133
40.02,13.1661
40.03,13.0213
40.04,12.8788
40.05,12.7387
40.06,12.6008
40.07,12.4652
40.08,12.3317
40.09,12.2004
40.1,12.0711
40.11,11.9439
40.12,11.8187
40.13,11.6954
40.14,11.574
40.15,11.4545
40.16,11.3368
40.17,11.221
40.18,11.1069
40.19,10.9945
40.2,10.8838
40.21,10.7747
40.22,10.6673
40.23,10.5615
40.24,10.4573
40.25,10.3545
40.26,10.2533
40.27,10.1536
40.28,10.0553
40.29,9.95838
40.3,9.86288
40.31,9.76874
40.32,9.67594
40.33,9.58445
40.34,9.49425
40.35,9.40532
40.36,9.31762
40.37,9.23114
40.38,9.14586
40.39,9.06174
40.4,8.97878
40.41,8.89695
40.42,8.81624
40.43,8.73661
40.44,8.65805
40.45,8.58055
40.46,8.50407
40.47,8.42862
40.48,8.35416
40.49,8.28068